[{"success":true,"timeout":false,"failed_images":[],"failed_audio":[],"failed_video":[],"trial_type":"preload","trial_index":0,"time_elapsed":1053,"internal_node_id":"0.0-0.0","subject_id":"5c1a8a5e2a85450001a878cd","study_id":"6437092920136b88d7967a4f","session_id":"643887aecffe3d165c779a78"},{"rt":52263,"stimulus":"<p>Welcome to the experiment</p><br><p>Press any key to begin.</p>","response":" ","trial_type":"html-keyboard-response","trial_index":1,"time_elapsed":53321,"internal_node_id":"0.0-1.0","subject_id":"5c1a8a5e2a85450001a878cd","study_id":"6437092920136b88d7967a4f","session_id":"643887aecffe3d165c779a78"},{"rt":null,"stimulus":"\n        <p>In each trial, you will see two different images sourced from a popular social platform.</p>\n        <p>Each image will have an upvote count above it.</p>\n        <p>An upvote is a like given by users of the platform and helps promote quality content and discussion on the platform.</p>\n        <p>A higher upvote count means more people like the post and recommend it to other users.</p>\n        <br>\n        <p>Press any key to continue.</p>\n      ","response":null,"trial_type":"html-keyboard-response","trial_index":2,"time_elapsed":55322,"internal_node_id":"0.0-2.0-0.0","subject_id":"5c1a8a5e2a85450001a878cd","study_id":"6437092920136b88d7967a4f","session_id":"643887aecffe3d165c779a78"},{"rt":4877,"stimulus":"\n        <p>In each trial, you will see two different images sourced from a popular social platform.</p>\n        <p>Each image will have an upvote count above it.</p>\n        <p>An upvote is a like given by users of the platform and helps promote quality content and discussion on the platform.</p>\n        <p>A higher upvote count means more people like the post and recommend it to other users.</p>\n        <br>\n        <p>Press any key to continue.</p>\n      ","response":" ","trial_type":"html-keyboard-response","trial_index":3,"time_elapsed":60199,"internal_node_id":"0.0-2.0-1.0","subject_id":"5c1a8a5e2a85450001a878cd","study_id":"6437092920136b88d7967a4f","session_id":"643887aecffe3d165c779a78"},{"rt":null,"stimulus":"\n        <p>At the start of every trial, both images will be blurred.</p>\n        <p>The image you select will unblur itself, and the other one will stay the same.</p>\n        <p>Please take some time to consider both images and their upvote counts. If you respond too fast, you will not see the image.</p>\n        <br>\n        <p>Press any key to continue.</p>\n      ","response":null,"trial_type":"html-keyboard-response","trial_index":4,"time_elapsed":62200,"internal_node_id":"0.0-2.0-2.0","subject_id":"5c1a8a5e2a85450001a878cd","study_id":"6437092920136b88d7967a4f","session_id":"643887aecffe3d165c779a78"},{"rt":8288,"stimulus":"\n        <p>At the start of every trial, both images will be blurred.</p>\n        <p>The image you select will unblur itself, and the other one will stay the same.</p>\n        <p>Please take some time to consider both images and their upvote counts. If you respond too fast, you will not see the image.</p>\n        <br>\n        <p>Press any key to continue.</p>\n      ","response":"alt","trial_type":"html-keyboard-response","trial_index":5,"time_elapsed":70489,"internal_node_id":"0.0-2.0-3.0","subject_id":"5c1a8a5e2a85450001a878cd","study_id":"6437092920136b88d7967a4f","session_id":"643887aecffe3d165c779a78"},{"rt":null,"stimulus":"\n        <p>We will now go through 2 practice trials.</p>\n        <p>Press “←” on your keyboard to select the left image or “→” to select the right image.</p>\n        <br>\n        <p>On the next slide, you will see the images.</p>\n        <p>Press any key to continue.</p>\n      ","response":null,"trial_type":"html-keyboard-response","trial_index":6,"time_elapsed":72490,"internal_node_id":"0.0-2.0-4.0","subject_id":"5c1a8a5e2a85450001a878cd","study_id":"6437092920136b88d7967a4f","session_id":"643887aecffe3d165c779a78"},{"rt":64148,"stimulus":"\n        <p>We will now go through 2 practice trials.</p>\n        <p>Press “←” on your keyboard to select the left image or “→” to select the right image.</p>\n        <br>\n        <p>On the next slide, you will see the images.</p>\n        <p>Press any key to continue.</p>\n      ","response":"arrowleft","trial_type":"html-keyboard-response","trial_index":7,"time_elapsed":136639,"internal_node_id":"0.0-2.0-5.0","subject_id":"5c1a8a5e2a85450001a878cd","study_id":"6437092920136b88d7967a4f","session_id":"643887aecffe3d165c779a78"},{"rt":2941,"stimulus":"<div class=\"container\">\n        <div class=\"img-container\">\n            <div class=\"column\">\n                <img src=imgs/img-prac-1.jpg class=\"img\" style=\"filter: blur(40px)\">\n                <div class=\"upvote\">\n                    <span class=\"upvote-count\">78</span>\n                </div>\n            </div>\n            <div class=\"column\">\n                <img src=imgs/img-prac-2.png class=\"img\" style=\"filter: blur(20px)\">\n                <div class=\"upvote\">\n                    <span class=\"upvote-count\">898</span>\n                </div>\n            </div>\n        </div>\n    </div> \n    <br>\n    <p>Which one do you want to reveal?</p>","response":"arrowright","phase":"practice_1","task":"choose","left_upvote":78,"left_blur":40,"right_upvote":898,"right_blur":20,"check":true,"trial_type":"html-keyboard-response","trial_index":8,"time_elapsed":139584,"internal_node_id":"0.0-3.0-0.0","subject_id":"5c1a8a5e2a85450001a878cd","study_id":"6437092920136b88d7967a4f","session_id":"643887aecffe3d165c779a78"},{"rt":4814,"stimulus":"<div class=\"container\">\n        <div class=\"img-container\">\n            <div class=\"column\">\n                <img src=imgs/img-prac-1.jpg class=\"img\" style=\"filter: blur(40px)\">\n                <div class=\"upvote\">\n                    <span class=\"upvote-count\">78</span>\n                </div>\n            </div>\n            <div class=\"column\">\n                <img src=imgs/img-prac-2.png class=\"img\">\n                <div class=\"upvote\">\n                    <span class=\"upvote-count\">898</span>\n                </div>\n            </div>\n        </div>\n    </div>   \n    <br>\n    <p>Press any key to continue.</p>","response":"arrowright","phase":"practice_1","task":"reveal","trial_type":"html-keyboard-response","trial_index":9,"time_elapsed":144400,"internal_node_id":"0.0-3.0-1.0","subject_id":"5c1a8a5e2a85450001a878cd","study_id":"6437092920136b88d7967a4f","session_id":"643887aecffe3d165c779a78"},{"rt":2038,"stimulus":"\n        <p>Great! Now try that with a different pair of images.</p>\n        <br>\n        <p>Press any key to continue.</p>\n      ","response":"arrowright","trial_type":"html-keyboard-response","trial_index":10,"time_elapsed":146440,"internal_node_id":"0.0-4.0-0.0","subject_id":"5c1a8a5e2a85450001a878cd","study_id":"6437092920136b88d7967a4f","session_id":"643887aecffe3d165c779a78"},{"rt":2174,"stimulus":"<div class=\"container\">\n        <div class=\"img-container\">\n            <div class=\"column\">\n                <img src=imgs/img-prac-3.png class=\"img\" style=\"filter: blur(10px)\">\n                <div class=\"upvote\">\n                    <span class=\"upvote-count\">1149</span>\n                </div>\n            </div>\n            <div class=\"column\">\n                <img src=imgs/img-prac-4.png class=\"img\" style=\"filter: blur(15px)\">\n                <div class=\"upvote\">\n                    <span class=\"upvote-count\">1529</span>\n                </div>\n            </div>\n        </div>\n    </div> \n    <br>\n    <p>Which one do you want to reveal?</p>","response":"arrowright","phase":"practice_2","task":"choose","left_upvote":1149,"left_blur":10,"right_upvote":1529,"right_blur":15,"check":true,"trial_type":"html-keyboard-response","trial_index":11,"time_elapsed":148616,"internal_node_id":"0.0-5.0-0.0","subject_id":"5c1a8a5e2a85450001a878cd","study_id":"6437092920136b88d7967a4f","session_id":"643887aecffe3d165c779a78"},{"rt":1159,"stimulus":"<div class=\"container\">\n        <div class=\"img-container\">\n            <div class=\"column\">\n                <img src=imgs/img-prac-3.png class=\"img\" style=\"filter: blur(10px)\">\n                <div class=\"upvote\">\n                    <span class=\"upvote-count\">1149</span>\n                </div>\n            </div>\n            <div class=\"column\">\n                <img src=imgs/img-prac-4.png class=\"img\">\n                <div class=\"upvote\">\n                    <span class=\"upvote-count\">1529</span>\n                </div>\n            </div>\n        </div>\n    </div>   \n    <br>\n    <p>Press any key to continue.</p>","response":"arrowright","phase":"practice_2","task":"reveal","trial_type":"html-keyboard-response","trial_index":12,"time_elapsed":149775,"internal_node_id":"0.0-5.0-1.0","subject_id":"5c1a8a5e2a85450001a878cd","study_id":"6437092920136b88d7967a4f","session_id":"643887aecffe3d165c779a78"},{"rt":2983,"stimulus":"\n        <p>You have completed the tutorial!</p>\n        <p>The experiment will begin starting from the next slide.</p>\n        <p>There are 21 trials in the experiment.</p>\n        <br>\n        <p>Press any key to continue when you are ready.</p>\n      ","response":"arrowright","trial_type":"html-keyboard-response","trial_index":13,"time_elapsed":152760,"internal_node_id":"0.0-6.0","subject_id":"5c1a8a5e2a85450001a878cd","study_id":"6437092920136b88d7967a4f","session_id":"643887aecffe3d165c779a78"},{"rt":null,"stimulus":"\n          <p>Trial 1 of 21</p>\n        ","response":null,"phase":"test","trial_type":"html-keyboard-response","trial_index":14,"time_elapsed":153762,"internal_node_id":"0.0-7.0-0.0","subject_id":"5c1a8a5e2a85450001a878cd","study_id":"6437092920136b88d7967a4f","session_id":"643887aecffe3d165c779a78"},{"rt":1987,"stimulus":"<div class=\"container\">\n        <div class=\"img-container\">\n            <div class=\"column\">\n                <img src=imgs/img-32.png class=\"img\" style=\"filter: blur(9px)\">\n                <div class=\"upvote\">\n                    <span class=\"upvote-count\">171</span>\n                </div>\n            </div>\n            <div class=\"column\">\n                <img src=imgs/img-10.png class=\"img\" style=\"filter: blur(14px)\">\n                <div class=\"upvote\">\n                    <span class=\"upvote-count\">3817</span>\n                </div>\n            </div>\n        </div>\n    </div> \n    <br>\n    <p>Which one do you want to reveal?</p>","response":"arrowleft","phase":"test","task":"choose","left_img":32,"left_upvote":171,"left_blur":9,"right_img":10,"right_upvote":3817,"right_blur":14,"check":true,"trial_type":"html-keyboard-response","trial_index":15,"time_elapsed":155750,"internal_node_id":"0.0-7.0-1.0","subject_id":"5c1a8a5e2a85450001a878cd","study_id":"6437092920136b88d7967a4f","session_id":"643887aecffe3d165c779a78"},{"rt":2489,"stimulus":"<div class=\"container\">\n        <div class=\"img-container\">\n            <div class=\"column\">\n                <img src=imgs/img-32.png class=\"img\">\n                <div class=\"upvote\">\n                    <span class=\"upvote-count\">171</span>\n                </div>\n            </div>\n            <div class=\"column\">\n                <img src=imgs/img-10.png class=\"img\" style=\"filter: blur(14px)\">\n                <div class=\"upvote\">\n                    <span class=\"upvote-count\">3817</span>\n                </div>\n            </div>\n        </div>\n    </div> \n    <br>\n    <p>Press any key to continue.</p>","response":"arrowleft","phase":"test","task":"reveal","trial_type":"html-keyboard-response","trial_index":16,"time_elapsed":158239,"internal_node_id":"0.0-7.0-2.0","subject_id":"5c1a8a5e2a85450001a878cd","study_id":"6437092920136b88d7967a4f","session_id":"643887aecffe3d165c779a78"},{"rt":null,"stimulus":"\n          <p>Trial 2 of 21</p>\n        ","response":null,"phase":"test","trial_type":"html-keyboard-response","trial_index":17,"time_elapsed":159254,"internal_node_id":"0.0-7.0-0.1","subject_id":"5c1a8a5e2a85450001a878cd","study_id":"6437092920136b88d7967a4f","session_id":"643887aecffe3d165c779a78"},{"rt":144,"stimulus":"<div class=\"container\">\n        <div class=\"img-container\">\n            <div class=\"column\">\n                <img src=imgs/img-26.png class=\"img\" style=\"filter: blur(25px)\">\n                <div class=\"upvote\">\n                    <span class=\"upvote-count\">355</span>\n                </div>\n            </div>\n            <div class=\"column\">\n                <img src=imgs/img-17.png class=\"img\" style=\"filter: blur(18px)\">\n                <div class=\"upvote\">\n                    <span class=\"upvote-count\">836</span>\n                </div>\n            </div>\n        </div>\n    </div> \n    <br>\n    <p>Which one do you want to reveal?</p>","response":"arrowright","phase":"test","task":"choose","left_img":26,"left_upvote":355,"left_blur":25,"right_img":17,"right_upvote":836,"right_blur":18,"check":false,"trial_type":"html-keyboard-response","trial_index":18,"time_elapsed":159401,"internal_node_id":"0.0-7.0-1.1","subject_id":"5c1a8a5e2a85450001a878cd","study_id":"6437092920136b88d7967a4f","session_id":"643887aecffe3d165c779a78"},{"rt":null,"stimulus":"\n        <p>You are responding too fast.  </p>\n        <p>Please spend a bit more time looking at each image next time. </p>\n        ","response":null,"phase":"test","task":"reveal","trial_type":"html-keyboard-response","trial_index":19,"time_elapsed":161403,"internal_node_id":"0.0-7.0-2.1","subject_id":"5c1a8a5e2a85450001a878cd","study_id":"6437092920136b88d7967a4f","session_id":"643887aecffe3d165c779a78"},{"rt":null,"stimulus":"\n          <p>Trial 3 of 21</p>\n        ","response":null,"phase":"test","trial_type":"html-keyboard-response","trial_index":20,"time_elapsed":162405,"internal_node_id":"0.0-7.0-0.2","subject_id":"5c1a8a5e2a85450001a878cd","study_id":"6437092920136b88d7967a4f","session_id":"643887aecffe3d165c779a78"},{"rt":2706,"stimulus":"<div class=\"container\">\n        <div class=\"img-container\">\n            <div class=\"column\">\n                <img src=imgs/img-30.png class=\"img\" style=\"filter: blur(25px)\">\n                <div class=\"upvote\">\n                    <span class=\"upvote-count\">206</span>\n                </div>\n            </div>\n            <div class=\"column\">\n                <img src=imgs/img-14.png class=\"img\" style=\"filter: blur(13px)\">\n                <div class=\"upvote\">\n                    <span class=\"upvote-count\">656</span>\n                </div>\n            </div>\n        </div>\n    </div> \n    <br>\n    <p>Which one do you want to reveal?</p>","response":"arrowright","phase":"test","task":"choose","left_img":30,"left_upvote":206,"left_blur":25,"right_img":14,"right_upvote":656,"right_blur":13,"check":true,"trial_type":"html-keyboard-response","trial_index":21,"time_elapsed":165111,"internal_node_id":"0.0-7.0-1.2","subject_id":"5c1a8a5e2a85450001a878cd","study_id":"6437092920136b88d7967a4f","session_id":"643887aecffe3d165c779a78"},{"rt":1983,"stimulus":"<div class=\"container\">\n        <div class=\"img-container\">\n            <div class=\"column\">\n                <img src=imgs/img-30.png class=\"img\" style=\"filter: blur(25px)\">\n                <div class=\"upvote\">\n                    <span class=\"upvote-count\">206</span>\n                </div>\n            </div>\n            <div class=\"column\">\n                <img src=imgs/img-14.png class=\"img\">\n                <div class=\"upvote\">\n                    <span class=\"upvote-count\">656</span>\n                </div>\n            </div>\n        </div>\n    </div>   \n    <br>\n    <p>Press any key to continue.</p>","response":"arrowright","phase":"test","task":"reveal","trial_type":"html-keyboard-response","trial_index":22,"time_elapsed":167096,"internal_node_id":"0.0-7.0-2.2","subject_id":"5c1a8a5e2a85450001a878cd","study_id":"6437092920136b88d7967a4f","session_id":"643887aecffe3d165c779a78"},{"rt":null,"stimulus":"\n          <p>Trial 4 of 21</p>\n        ","response":null,"phase":"test","trial_type":"html-keyboard-response","trial_index":23,"time_elapsed":168098,"internal_node_id":"0.0-7.0-0.3","subject_id":"5c1a8a5e2a85450001a878cd","study_id":"6437092920136b88d7967a4f","session_id":"643887aecffe3d165c779a78"},{"rt":2061,"stimulus":"<div class=\"container\">\n        <div class=\"img-container\">\n            <div class=\"column\">\n                <img src=imgs/img-41.png class=\"img\" style=\"filter: blur(9px)\">\n                <div class=\"upvote\">\n                    <span class=\"upvote-count\">64</span>\n                </div>\n            </div>\n            <div class=\"column\">\n                <img src=imgs/img-4.png class=\"img\" style=\"filter: blur(4px)\">\n                <div class=\"upvote\">\n                    <span class=\"upvote-count\">1617</span>\n                </div>\n            </div>\n        </div>\n    </div> \n    <br>\n    <p>Which one do you want to reveal?</p>","response":"arrowright","phase":"test","task":"choose","left_img":41,"left_upvote":64,"left_blur":9,"right_img":4,"right_upvote":1617,"right_blur":4,"check":true,"trial_type":"html-keyboard-response","trial_index":24,"time_elapsed":170160,"internal_node_id":"0.0-7.0-1.3","subject_id":"5c1a8a5e2a85450001a878cd","study_id":"6437092920136b88d7967a4f","session_id":"643887aecffe3d165c779a78"},{"rt":375,"stimulus":"<div class=\"container\">\n        <div class=\"img-container\">\n            <div class=\"column\">\n                <img src=imgs/img-41.png class=\"img\" style=\"filter: blur(9px)\">\n                <div class=\"upvote\">\n                    <span class=\"upvote-count\">64</span>\n                </div>\n            </div>\n            <div class=\"column\">\n                <img src=imgs/img-4.png class=\"img\">\n                <div class=\"upvote\">\n                    <span class=\"upvote-count\">1617</span>\n                </div>\n            </div>\n        </div>\n    </div>   \n    <br>\n    <p>Press any key to continue.</p>","response":"arrowright","phase":"test","task":"reveal","trial_type":"html-keyboard-response","trial_index":25,"time_elapsed":170535,"internal_node_id":"0.0-7.0-2.3","subject_id":"5c1a8a5e2a85450001a878cd","study_id":"6437092920136b88d7967a4f","session_id":"643887aecffe3d165c779a78"},{"rt":null,"stimulus":"\n          <p>Trial 5 of 21</p>\n        ","response":null,"phase":"test","trial_type":"html-keyboard-response","trial_index":26,"time_elapsed":171537,"internal_node_id":"0.0-7.0-0.4","subject_id":"5c1a8a5e2a85450001a878cd","study_id":"6437092920136b88d7967a4f","session_id":"643887aecffe3d165c779a78"},{"rt":1758,"stimulus":"<div class=\"container\">\n        <div class=\"img-container\">\n            <div class=\"column\">\n                <img src=imgs/img-21.png class=\"img\" style=\"filter: blur(47px)\">\n                <div class=\"upvote\">\n                    <span class=\"upvote-count\">510</span>\n                </div>\n            </div>\n            <div class=\"column\">\n                <img src=imgs/img-37.png class=\"img\" style=\"filter: blur(24px)\">\n                <div class=\"upvote\">\n                    <span class=\"upvote-count\">99</span>\n                </div>\n            </div>\n        </div>\n    </div> \n    <br>\n    <p>Which one do you want to reveal?</p>","response":"arrowright","phase":"test","task":"choose","left_img":21,"left_upvote":510,"left_blur":47,"right_img":37,"right_upvote":99,"right_blur":24,"check":true,"trial_type":"html-keyboard-response","trial_index":27,"time_elapsed":173296,"internal_node_id":"0.0-7.0-1.4","subject_id":"5c1a8a5e2a85450001a878cd","study_id":"6437092920136b88d7967a4f","session_id":"643887aecffe3d165c779a78"},{"rt":327,"stimulus":"<div class=\"container\">\n        <div class=\"img-container\">\n            <div class=\"column\">\n                <img src=imgs/img-21.png class=\"img\" style=\"filter: blur(47px)\">\n                <div class=\"upvote\">\n                    <span class=\"upvote-count\">510</span>\n                </div>\n            </div>\n            <div class=\"column\">\n                <img src=imgs/img-37.png class=\"img\">\n                <div class=\"upvote\">\n                    <span class=\"upvote-count\">99</span>\n                </div>\n            </div>\n        </div>\n    </div>   \n    <br>\n    <p>Press any key to continue.</p>","response":"arrowright","phase":"test","task":"reveal","trial_type":"html-keyboard-response","trial_index":28,"time_elapsed":173624,"internal_node_id":"0.0-7.0-2.4","subject_id":"5c1a8a5e2a85450001a878cd","study_id":"6437092920136b88d7967a4f","session_id":"643887aecffe3d165c779a78"},{"rt":null,"stimulus":"\n          <p>Trial 6 of 21</p>\n        ","response":null,"phase":"test","trial_type":"html-keyboard-response","trial_index":29,"time_elapsed":174640,"internal_node_id":"0.0-7.0-0.5","subject_id":"5c1a8a5e2a85450001a878cd","study_id":"6437092920136b88d7967a4f","session_id":"643887aecffe3d165c779a78"},{"rt":1815,"stimulus":"<div class=\"container\">\n        <div class=\"img-container\">\n            <div class=\"column\">\n                <img src=imgs/img-2.png class=\"img\" style=\"filter: blur(28px)\">\n                <div class=\"upvote\">\n                    <span class=\"upvote-count\">1809</span>\n                </div>\n            </div>\n            <div class=\"column\">\n                <img src=imgs/img-25.png class=\"img\" style=\"filter: blur(14px)\">\n                <div class=\"upvote\">\n                    <span class=\"upvote-count\">384</span>\n                </div>\n            </div>\n        </div>\n    </div> \n    <br>\n    <p>Which one do you want to reveal?</p>","response":"arrowright","phase":"test","task":"choose","left_img":1,"left_upvote":1809,"left_blur":28,"right_img":25,"right_upvote":384,"right_blur":14,"check":true,"trial_type":"html-keyboard-response","trial_index":30,"time_elapsed":176456,"internal_node_id":"0.0-7.0-1.5","subject_id":"5c1a8a5e2a85450001a878cd","study_id":"6437092920136b88d7967a4f","session_id":"643887aecffe3d165c779a78"},{"rt":206,"stimulus":"<div class=\"container\">\n        <div class=\"img-container\">\n            <div class=\"column\">\n                <img src=imgs/img-2.png class=\"img\" style=\"filter: blur(28px)\">\n                <div class=\"upvote\">\n                    <span class=\"upvote-count\">1809</span>\n                </div>\n            </div>\n            <div class=\"column\">\n                <img src=imgs/img-25.png class=\"img\">\n                <div class=\"upvote\">\n                    <span class=\"upvote-count\">384</span>\n                </div>\n            </div>\n        </div>\n    </div>   \n    <br>\n    <p>Press any key to continue.</p>","response":"arrowright","phase":"test","task":"reveal","trial_type":"html-keyboard-response","trial_index":31,"time_elapsed":176664,"internal_node_id":"0.0-7.0-2.5","subject_id":"5c1a8a5e2a85450001a878cd","study_id":"6437092920136b88d7967a4f","session_id":"643887aecffe3d165c779a78"},{"rt":null,"stimulus":"\n          <p>Trial 7 of 21</p>\n        ","response":null,"phase":"test","trial_type":"html-keyboard-response","trial_index":32,"time_elapsed":177665,"internal_node_id":"0.0-7.0-0.6","subject_id":"5c1a8a5e2a85450001a878cd","study_id":"6437092920136b88d7967a4f","session_id":"643887aecffe3d165c779a78"},{"rt":733,"stimulus":"<div class=\"container\">\n        <div class=\"img-container\">\n            <div class=\"column\">\n                <img src=imgs/img-39.png class=\"img\" style=\"filter: blur(14px)\">\n                <div class=\"upvote\">\n                    <span class=\"upvote-count\">70</span>\n                </div>\n            </div>\n            <div class=\"column\">\n                <img src=imgs/img-8.png class=\"img\" style=\"filter: blur(22px)\">\n                <div class=\"upvote\">\n                    <span class=\"upvote-count\">976</span>\n                </div>\n            </div>\n        </div>\n    </div> \n    <br>\n    <p>Which one do you want to reveal?</p>","response":"arrowleft","phase":"test","task":"choose","left_img":39,"left_upvote":70,"left_blur":14,"right_img":8,"right_upvote":976,"right_blur":22,"check":true,"trial_type":"html-keyboard-response","trial_index":33,"time_elapsed":178399,"internal_node_id":"0.0-7.0-1.6","subject_id":"5c1a8a5e2a85450001a878cd","study_id":"6437092920136b88d7967a4f","session_id":"643887aecffe3d165c779a78"},{"rt":239,"stimulus":"<div class=\"container\">\n        <div class=\"img-container\">\n            <div class=\"column\">\n                <img src=imgs/img-39.png class=\"img\">\n                <div class=\"upvote\">\n                    <span class=\"upvote-count\">70</span>\n                </div>\n            </div>\n            <div class=\"column\">\n                <img src=imgs/img-8.png class=\"img\" style=\"filter: blur(22px)\">\n                <div class=\"upvote\">\n                    <span class=\"upvote-count\">976</span>\n                </div>\n            </div>\n        </div>\n    </div> \n    <br>\n    <p>Press any key to continue.</p>","response":"arrowleft","phase":"test","task":"reveal","trial_type":"html-keyboard-response","trial_index":34,"time_elapsed":178640,"internal_node_id":"0.0-7.0-2.6","subject_id":"5c1a8a5e2a85450001a878cd","study_id":"6437092920136b88d7967a4f","session_id":"643887aecffe3d165c779a78"},{"rt":null,"stimulus":"\n          <p>Trial 8 of 21</p>\n        ","response":null,"phase":"test","trial_type":"html-keyboard-response","trial_index":35,"time_elapsed":179641,"internal_node_id":"0.0-7.0-0.7","subject_id":"5c1a8a5e2a85450001a878cd","study_id":"6437092920136b88d7967a4f","session_id":"643887aecffe3d165c779a78"},{"rt":1365,"stimulus":"<div class=\"container\">\n        <div class=\"img-container\">\n            <div class=\"column\">\n                <img src=imgs/img-9.png class=\"img\" style=\"filter: blur(12px)\">\n                <div class=\"upvote\">\n                    <span class=\"upvote-count\">686</span>\n                </div>\n            </div>\n            <div class=\"column\">\n                <img src=imgs/img-20.png class=\"img\" style=\"filter: blur(23px)\">\n                <div class=\"upvote\">\n                    <span class=\"upvote-count\">558</span>\n                </div>\n            </div>\n        </div>\n    </div> \n    <br>\n    <p>Which one do you want to reveal?</p>","response":"arrowleft","phase":"test","task":"choose","left_img":9,"left_upvote":686,"left_blur":12,"right_img":20,"right_upvote":558,"right_blur":23,"check":true,"trial_type":"html-keyboard-response","trial_index":36,"time_elapsed":181008,"internal_node_id":"0.0-7.0-1.7","subject_id":"5c1a8a5e2a85450001a878cd","study_id":"6437092920136b88d7967a4f","session_id":"643887aecffe3d165c779a78"},{"rt":215,"stimulus":"<div class=\"container\">\n        <div class=\"img-container\">\n            <div class=\"column\">\n                <img src=imgs/img-9.png class=\"img\">\n                <div class=\"upvote\">\n                    <span class=\"upvote-count\">686</span>\n                </div>\n            </div>\n            <div class=\"column\">\n                <img src=imgs/img-20.png class=\"img\" style=\"filter: blur(23px)\">\n                <div class=\"upvote\">\n                    <span class=\"upvote-count\">558</span>\n                </div>\n            </div>\n        </div>\n    </div> \n    <br>\n    <p>Press any key to continue.</p>","response":"arrowleft","phase":"test","task":"reveal","trial_type":"html-keyboard-response","trial_index":37,"time_elapsed":181223,"internal_node_id":"0.0-7.0-2.7","subject_id":"5c1a8a5e2a85450001a878cd","study_id":"6437092920136b88d7967a4f","session_id":"643887aecffe3d165c779a78"},{"rt":null,"stimulus":"\n          <p>Trial 9 of 21</p>\n        ","response":null,"phase":"test","trial_type":"html-keyboard-response","trial_index":38,"time_elapsed":182226,"internal_node_id":"0.0-7.0-0.8","subject_id":"5c1a8a5e2a85450001a878cd","study_id":"6437092920136b88d7967a4f","session_id":"643887aecffe3d165c779a78"},{"rt":1357,"stimulus":"<div class=\"container\">\n        <div class=\"img-container\">\n            <div class=\"column\">\n                <img src=imgs/img-24.png class=\"img\" style=\"filter: blur(25px)\">\n                <div class=\"upvote\">\n                    <span class=\"upvote-count\">682</span>\n                </div>\n            </div>\n            <div class=\"column\">\n                <img src=imgs/img-42.png class=\"img\" style=\"filter: blur(25px)\">\n                <div class=\"upvote\">\n                    <span class=\"upvote-count\">763</span>\n                </div>\n            </div>\n        </div>\n    </div> \n    <br>\n    <p>Which one do you want to reveal?</p>","response":"arrowright","phase":"test","task":"choose","left_img":24,"left_upvote":682,"left_blur":25,"right_img":42,"right_upvote":763,"right_blur":25,"check":true,"trial_type":"html-keyboard-response","trial_index":39,"time_elapsed":183584,"internal_node_id":"0.0-7.0-1.8","subject_id":"5c1a8a5e2a85450001a878cd","study_id":"6437092920136b88d7967a4f","session_id":"643887aecffe3d165c779a78"},{"rt":215,"stimulus":"<div class=\"container\">\n        <div class=\"img-container\">\n            <div class=\"column\">\n                <img src=imgs/img-24.png class=\"img\" style=\"filter: blur(25px)\">\n                <div class=\"upvote\">\n                    <span class=\"upvote-count\">682</span>\n                </div>\n            </div>\n            <div class=\"column\">\n                <img src=imgs/img-42.png class=\"img\">\n                <div class=\"upvote\">\n                    <span class=\"upvote-count\">763</span>\n                </div>\n            </div>\n        </div>\n    </div>   \n    <br>\n    <p>Press any key to continue.</p>","response":"arrowright","phase":"test","task":"reveal","trial_type":"html-keyboard-response","trial_index":40,"time_elapsed":183799,"internal_node_id":"0.0-7.0-2.8","subject_id":"5c1a8a5e2a85450001a878cd","study_id":"6437092920136b88d7967a4f","session_id":"643887aecffe3d165c779a78"},{"rt":null,"stimulus":"\n          <p>Trial 10 of 21</p>\n        ","response":null,"phase":"test","trial_type":"html-keyboard-response","trial_index":41,"time_elapsed":184800,"internal_node_id":"0.0-7.0-0.9","subject_id":"5c1a8a5e2a85450001a878cd","study_id":"6437092920136b88d7967a4f","session_id":"643887aecffe3d165c779a78"},{"rt":2071,"stimulus":"<div class=\"container\">\n        <div class=\"img-container\">\n            <div class=\"column\">\n                <img src=imgs/img-35.png class=\"img\" style=\"filter: blur(12px)\">\n                <div class=\"upvote\">\n                    <span class=\"upvote-count\">114</span>\n                </div>\n            </div>\n            <div class=\"column\">\n                <img src=imgs/img-36.png class=\"img\" style=\"filter: blur(34px)\">\n                <div class=\"upvote\">\n                    <span class=\"upvote-count\">105</span>\n                </div>\n            </div>\n        </div>\n    </div> \n    <br>\n    <p>Which one do you want to reveal?</p>","response":"arrowright","phase":"test","task":"choose","left_img":35,"left_upvote":114,"left_blur":12,"right_img":36,"right_upvote":105,"right_blur":34,"check":true,"trial_type":"html-keyboard-response","trial_index":42,"time_elapsed":186873,"internal_node_id":"0.0-7.0-1.9","subject_id":"5c1a8a5e2a85450001a878cd","study_id":"6437092920136b88d7967a4f","session_id":"643887aecffe3d165c779a78"},{"rt":206,"stimulus":"<div class=\"container\">\n        <div class=\"img-container\">\n            <div class=\"column\">\n                <img src=imgs/img-35.png class=\"img\" style=\"filter: blur(12px)\">\n                <div class=\"upvote\">\n                    <span class=\"upvote-count\">114</span>\n                </div>\n            </div>\n            <div class=\"column\">\n                <img src=imgs/img-36.png class=\"img\">\n                <div class=\"upvote\">\n                    <span class=\"upvote-count\">105</span>\n                </div>\n            </div>\n        </div>\n    </div>   \n    <br>\n    <p>Press any key to continue.</p>","response":"arrowright","phase":"test","task":"reveal","trial_type":"html-keyboard-response","trial_index":43,"time_elapsed":187079,"internal_node_id":"0.0-7.0-2.9","subject_id":"5c1a8a5e2a85450001a878cd","study_id":"6437092920136b88d7967a4f","session_id":"643887aecffe3d165c779a78"},{"rt":null,"stimulus":"\n          <p>Trial 11 of 21</p>\n        ","response":null,"phase":"test","trial_type":"html-keyboard-response","trial_index":44,"time_elapsed":188081,"internal_node_id":"0.0-7.0-0.10","subject_id":"5c1a8a5e2a85450001a878cd","study_id":"6437092920136b88d7967a4f","session_id":"643887aecffe3d165c779a78"},{"rt":1734,"stimulus":"<div class=\"container\">\n        <div class=\"img-container\">\n            <div class=\"column\">\n                <img src=imgs/img-12.png class=\"img\" style=\"filter: blur(18px)\">\n                <div class=\"upvote\">\n                    <span class=\"upvote-count\">1676</span>\n                </div>\n            </div>\n            <div class=\"column\">\n                <img src=imgs/img-31.png class=\"img\" style=\"filter: blur(5px)\">\n                <div class=\"upvote\">\n                    <span class=\"upvote-count\">241</span>\n                </div>\n            </div>\n        </div>\n    </div> \n    <br>\n    <p>Which one do you want to reveal?</p>","response":"arrowright","phase":"test","task":"choose","left_img":12,"left_upvote":1676,"left_blur":18,"right_img":31,"right_upvote":241,"right_blur":5,"check":true,"trial_type":"html-keyboard-response","trial_index":45,"time_elapsed":189815,"internal_node_id":"0.0-7.0-1.10","subject_id":"5c1a8a5e2a85450001a878cd","study_id":"6437092920136b88d7967a4f","session_id":"643887aecffe3d165c779a78"},{"rt":583,"stimulus":"<div class=\"container\">\n        <div class=\"img-container\">\n            <div class=\"column\">\n                <img src=imgs/img-12.png class=\"img\" style=\"filter: blur(18px)\">\n                <div class=\"upvote\">\n                    <span class=\"upvote-count\">1676</span>\n                </div>\n            </div>\n            <div class=\"column\">\n                <img src=imgs/img-31.png class=\"img\">\n                <div class=\"upvote\">\n                    <span class=\"upvote-count\">241</span>\n                </div>\n            </div>\n        </div>\n    </div>   \n    <br>\n    <p>Press any key to continue.</p>","response":"arrowdown","phase":"test","task":"reveal","trial_type":"html-keyboard-response","trial_index":46,"time_elapsed":190399,"internal_node_id":"0.0-7.0-2.10","subject_id":"5c1a8a5e2a85450001a878cd","study_id":"6437092920136b88d7967a4f","session_id":"643887aecffe3d165c779a78"},{"rt":null,"stimulus":"\n          <p>Trial 12 of 21</p>\n        ","response":null,"phase":"test","trial_type":"html-keyboard-response","trial_index":47,"time_elapsed":191401,"internal_node_id":"0.0-7.0-0.11","subject_id":"5c1a8a5e2a85450001a878cd","study_id":"6437092920136b88d7967a4f","session_id":"643887aecffe3d165c779a78"},{"rt":989,"stimulus":"<div class=\"container\">\n        <div class=\"img-container\">\n            <div class=\"column\">\n                <img src=imgs/img-28.png class=\"img\" style=\"filter: blur(31px)\">\n                <div class=\"upvote\">\n                    <span class=\"upvote-count\">312</span>\n                </div>\n            </div>\n            <div class=\"column\">\n                <img src=imgs/img-16.png class=\"img\" style=\"filter: blur(16px)\">\n                <div class=\"upvote\">\n                    <span class=\"upvote-count\">845</span>\n                </div>\n            </div>\n        </div>\n    </div> \n    <br>\n    <p>Which one do you want to reveal?</p>","response":"arrowright","phase":"test","task":"choose","left_img":28,"left_upvote":312,"left_blur":31,"right_img":16,"right_upvote":845,"right_blur":16,"check":true,"trial_type":"html-keyboard-response","trial_index":48,"time_elapsed":192391,"internal_node_id":"0.0-7.0-1.11","subject_id":"5c1a8a5e2a85450001a878cd","study_id":"6437092920136b88d7967a4f","session_id":"643887aecffe3d165c779a78"},{"rt":1831,"stimulus":"<div class=\"container\">\n        <div class=\"img-container\">\n            <div class=\"column\">\n                <img src=imgs/img-28.png class=\"img\" style=\"filter: blur(31px)\">\n                <div class=\"upvote\">\n                    <span class=\"upvote-count\">312</span>\n                </div>\n            </div>\n            <div class=\"column\">\n                <img src=imgs/img-16.png class=\"img\">\n                <div class=\"upvote\">\n                    <span class=\"upvote-count\">845</span>\n                </div>\n            </div>\n        </div>\n    </div>   \n    <br>\n    <p>Press any key to continue.</p>","response":"arrowleft","phase":"test","task":"reveal","trial_type":"html-keyboard-response","trial_index":49,"time_elapsed":194223,"internal_node_id":"0.0-7.0-2.11","subject_id":"5c1a8a5e2a85450001a878cd","study_id":"6437092920136b88d7967a4f","session_id":"643887aecffe3d165c779a78"},{"rt":null,"stimulus":"\n          <p>Trial 13 of 21</p>\n        ","response":null,"phase":"test","trial_type":"html-keyboard-response","trial_index":50,"time_elapsed":195225,"internal_node_id":"0.0-7.0-0.12","subject_id":"5c1a8a5e2a85450001a878cd","study_id":"6437092920136b88d7967a4f","session_id":"643887aecffe3d165c779a78"},{"rt":2038,"stimulus":"<div class=\"container\">\n        <div class=\"img-container\">\n            <div class=\"column\">\n                <img src=imgs/img-38.png class=\"img\" style=\"filter: blur(16px)\">\n                <div class=\"upvote\">\n                    <span class=\"upvote-count\">24</span>\n                </div>\n            </div>\n            <div class=\"column\">\n                <img src=imgs/img-3.png class=\"img\" style=\"filter: blur(19px)\">\n                <div class=\"upvote\">\n                    <span class=\"upvote-count\">1756</span>\n                </div>\n            </div>\n        </div>\n    </div> \n    <br>\n    <p>Which one do you want to reveal?</p>","response":"arrowleft","phase":"test","task":"choose","left_img":38,"left_upvote":24,"left_blur":16,"right_img":3,"right_upvote":1756,"right_blur":19,"check":true,"trial_type":"html-keyboard-response","trial_index":51,"time_elapsed":197264,"internal_node_id":"0.0-7.0-1.12","subject_id":"5c1a8a5e2a85450001a878cd","study_id":"6437092920136b88d7967a4f","session_id":"643887aecffe3d165c779a78"},{"rt":134,"stimulus":"<div class=\"container\">\n        <div class=\"img-container\">\n            <div class=\"column\">\n                <img src=imgs/img-38.png class=\"img\">\n                <div class=\"upvote\">\n                    <span class=\"upvote-count\">24</span>\n                </div>\n            </div>\n            <div class=\"column\">\n                <img src=imgs/img-3.png class=\"img\" style=\"filter: blur(19px)\">\n                <div class=\"upvote\">\n                    <span class=\"upvote-count\">1756</span>\n                </div>\n            </div>\n        </div>\n    </div> \n    <br>\n    <p>Press any key to continue.</p>","response":"arrowleft","phase":"test","task":"reveal","trial_type":"html-keyboard-response","trial_index":52,"time_elapsed":197399,"internal_node_id":"0.0-7.0-2.12","subject_id":"5c1a8a5e2a85450001a878cd","study_id":"6437092920136b88d7967a4f","session_id":"643887aecffe3d165c779a78"},{"rt":null,"stimulus":"\n          <p>Trial 14 of 21</p>\n        ","response":null,"phase":"test","trial_type":"html-keyboard-response","trial_index":53,"time_elapsed":198401,"internal_node_id":"0.0-7.0-0.13","subject_id":"5c1a8a5e2a85450001a878cd","study_id":"6437092920136b88d7967a4f","session_id":"643887aecffe3d165c779a78"},{"rt":2845,"stimulus":"<div class=\"container\">\n        <div class=\"img-container\">\n            <div class=\"column\">\n                <img src=imgs/img-19.png class=\"img\" style=\"filter: blur(41px)\">\n                <div class=\"upvote\">\n                    <span class=\"upvote-count\">600</span>\n                </div>\n            </div>\n            <div class=\"column\">\n                <img src=imgs/img-11.png class=\"img\" style=\"filter: blur(19px)\">\n                <div class=\"upvote\">\n                    <span class=\"upvote-count\">3043</span>\n                </div>\n            </div>\n        </div>\n    </div> \n    <br>\n    <p>Which one do you want to reveal?</p>","response":"arrowleft","phase":"test","task":"choose","left_img":19,"left_upvote":600,"left_blur":41,"right_img":11,"right_upvote":3043,"right_blur":19,"check":true,"trial_type":"html-keyboard-response","trial_index":54,"time_elapsed":201247,"internal_node_id":"0.0-7.0-1.13","subject_id":"5c1a8a5e2a85450001a878cd","study_id":"6437092920136b88d7967a4f","session_id":"643887aecffe3d165c779a78"},{"rt":727,"stimulus":"<div class=\"container\">\n        <div class=\"img-container\">\n            <div class=\"column\">\n                <img src=imgs/img-19.png class=\"img\">\n                <div class=\"upvote\">\n                    <span class=\"upvote-count\">600</span>\n                </div>\n            </div>\n            <div class=\"column\">\n                <img src=imgs/img-11.png class=\"img\" style=\"filter: blur(19px)\">\n                <div class=\"upvote\">\n                    <span class=\"upvote-count\">3043</span>\n                </div>\n            </div>\n        </div>\n    </div> \n    <br>\n    <p>Press any key to continue.</p>","response":"arrowleft","phase":"test","task":"reveal","trial_type":"html-keyboard-response","trial_index":55,"time_elapsed":201975,"internal_node_id":"0.0-7.0-2.13","subject_id":"5c1a8a5e2a85450001a878cd","study_id":"6437092920136b88d7967a4f","session_id":"643887aecffe3d165c779a78"},{"rt":null,"stimulus":"\n          <p>Trial 15 of 21</p>\n        ","response":null,"phase":"test","trial_type":"html-keyboard-response","trial_index":56,"time_elapsed":202977,"internal_node_id":"0.0-7.0-0.14","subject_id":"5c1a8a5e2a85450001a878cd","study_id":"6437092920136b88d7967a4f","session_id":"643887aecffe3d165c779a78"},{"rt":997,"stimulus":"<div class=\"container\">\n        <div class=\"img-container\">\n            <div class=\"column\">\n                <img src=imgs/img-23.png class=\"img\" style=\"filter: blur(25px)\">\n                <div class=\"upvote\">\n                    <span class=\"upvote-count\">394</span>\n                </div>\n            </div>\n            <div class=\"column\">\n                <img src=imgs/img-33.png class=\"img\" style=\"filter: blur(25px)\">\n                <div class=\"upvote\">\n                    <span class=\"upvote-count\">134</span>\n                </div>\n            </div>\n        </div>\n    </div> \n    <br>\n    <p>Which one do you want to reveal?</p>","response":"arrowright","phase":"test","task":"choose","left_img":23,"left_upvote":394,"left_blur":25,"right_img":33,"right_upvote":134,"right_blur":25,"check":true,"trial_type":"html-keyboard-response","trial_index":57,"time_elapsed":203975,"internal_node_id":"0.0-7.0-1.14","subject_id":"5c1a8a5e2a85450001a878cd","study_id":"6437092920136b88d7967a4f","session_id":"643887aecffe3d165c779a78"},{"rt":191,"stimulus":"<div class=\"container\">\n        <div class=\"img-container\">\n            <div class=\"column\">\n                <img src=imgs/img-23.png class=\"img\" style=\"filter: blur(25px)\">\n                <div class=\"upvote\">\n                    <span class=\"upvote-count\">394</span>\n                </div>\n            </div>\n            <div class=\"column\">\n                <img src=imgs/img-33.png class=\"img\">\n                <div class=\"upvote\">\n                    <span class=\"upvote-count\">134</span>\n                </div>\n            </div>\n        </div>\n    </div>   \n    <br>\n    <p>Press any key to continue.</p>","response":"arrowright","phase":"test","task":"reveal","trial_type":"html-keyboard-response","trial_index":58,"time_elapsed":204167,"internal_node_id":"0.0-7.0-2.14","subject_id":"5c1a8a5e2a85450001a878cd","study_id":"6437092920136b88d7967a4f","session_id":"643887aecffe3d165c779a78"},{"rt":null,"stimulus":"\n          <p>Trial 16 of 21</p>\n        ","response":null,"phase":"test","trial_type":"html-keyboard-response","trial_index":59,"time_elapsed":205169,"internal_node_id":"0.0-7.0-0.15","subject_id":"5c1a8a5e2a85450001a878cd","study_id":"6437092920136b88d7967a4f","session_id":"643887aecffe3d165c779a78"},{"rt":1509,"stimulus":"<div class=\"container\">\n        <div class=\"img-container\">\n            <div class=\"column\">\n                <img src=imgs/img-22.png class=\"img\" style=\"filter: blur(17px)\">\n                <div class=\"upvote\">\n                    <span class=\"upvote-count\">499</span>\n                </div>\n            </div>\n            <div class=\"column\">\n                <img src=imgs/img-7.png class=\"img\" style=\"filter: blur(20px)\">\n                <div class=\"upvote\">\n                    <span class=\"upvote-count\">1006</span>\n                </div>\n            </div>\n        </div>\n    </div> \n    <br>\n    <p>Which one do you want to reveal?</p>","response":"arrowright","phase":"test","task":"choose","left_img":22,"left_upvote":499,"left_blur":17,"right_img":7,"right_upvote":1006,"right_blur":20,"check":true,"trial_type":"html-keyboard-response","trial_index":60,"time_elapsed":206679,"internal_node_id":"0.0-7.0-1.15","subject_id":"5c1a8a5e2a85450001a878cd","study_id":"6437092920136b88d7967a4f","session_id":"643887aecffe3d165c779a78"},{"rt":239,"stimulus":"<div class=\"container\">\n        <div class=\"img-container\">\n            <div class=\"column\">\n                <img src=imgs/img-22.png class=\"img\" style=\"filter: blur(17px)\">\n                <div class=\"upvote\">\n                    <span class=\"upvote-count\">499</span>\n                </div>\n            </div>\n            <div class=\"column\">\n                <img src=imgs/img-7.png class=\"img\">\n                <div class=\"upvote\">\n                    <span class=\"upvote-count\">1006</span>\n                </div>\n            </div>\n        </div>\n    </div>   \n    <br>\n    <p>Press any key to continue.</p>","response":"arrowright","phase":"test","task":"reveal","trial_type":"html-keyboard-response","trial_index":61,"time_elapsed":206919,"internal_node_id":"0.0-7.0-2.15","subject_id":"5c1a8a5e2a85450001a878cd","study_id":"6437092920136b88d7967a4f","session_id":"643887aecffe3d165c779a78"},{"rt":null,"stimulus":"\n          <p>Trial 17 of 21</p>\n        ","response":null,"phase":"test","trial_type":"html-keyboard-response","trial_index":62,"time_elapsed":207921,"internal_node_id":"0.0-7.0-0.16","subject_id":"5c1a8a5e2a85450001a878cd","study_id":"6437092920136b88d7967a4f","session_id":"643887aecffe3d165c779a78"},{"rt":1446,"stimulus":"<div class=\"container\">\n        <div class=\"img-container\">\n            <div class=\"column\">\n                <img src=imgs/img-6.png class=\"img\" style=\"filter: blur(46px)\">\n                <div class=\"upvote\">\n                    <span class=\"upvote-count\">1072</span>\n                </div>\n            </div>\n            <div class=\"column\">\n                <img src=imgs/img-15.png class=\"img\" style=\"filter: blur(23px)\">\n                <div class=\"upvote\">\n                    <span class=\"upvote-count\">875</span>\n                </div>\n            </div>\n        </div>\n    </div> \n    <br>\n    <p>Which one do you want to reveal?</p>","response":"arrowleft","phase":"test","task":"choose","left_img":6,"left_upvote":1072,"left_blur":46,"right_img":15,"right_upvote":875,"right_blur":23,"check":true,"trial_type":"html-keyboard-response","trial_index":63,"time_elapsed":209368,"internal_node_id":"0.0-7.0-1.16","subject_id":"5c1a8a5e2a85450001a878cd","study_id":"6437092920136b88d7967a4f","session_id":"643887aecffe3d165c779a78"},{"rt":270,"stimulus":"<div class=\"container\">\n        <div class=\"img-container\">\n            <div class=\"column\">\n                <img src=imgs/img-6.png class=\"img\">\n                <div class=\"upvote\">\n                    <span class=\"upvote-count\">1072</span>\n                </div>\n            </div>\n            <div class=\"column\">\n                <img src=imgs/img-15.png class=\"img\" style=\"filter: blur(23px)\">\n                <div class=\"upvote\">\n                    <span class=\"upvote-count\">875</span>\n                </div>\n            </div>\n        </div>\n    </div> \n    <br>\n    <p>Press any key to continue.</p>","response":"arrowleft","phase":"test","task":"reveal","trial_type":"html-keyboard-response","trial_index":64,"time_elapsed":209639,"internal_node_id":"0.0-7.0-2.16","subject_id":"5c1a8a5e2a85450001a878cd","study_id":"6437092920136b88d7967a4f","session_id":"643887aecffe3d165c779a78"},{"rt":null,"stimulus":"\n          <p>Trial 18 of 21</p>\n        ","response":null,"phase":"test","trial_type":"html-keyboard-response","trial_index":65,"time_elapsed":210640,"internal_node_id":"0.0-7.0-0.17","subject_id":"5c1a8a5e2a85450001a878cd","study_id":"6437092920136b88d7967a4f","session_id":"643887aecffe3d165c779a78"},{"rt":1950,"stimulus":"<div class=\"container\">\n        <div class=\"img-container\">\n            <div class=\"column\">\n                <img src=imgs/img-27.png class=\"img\" style=\"filter: blur(42px)\">\n                <div class=\"upvote\">\n                    <span class=\"upvote-count\">280</span>\n                </div>\n            </div>\n            <div class=\"column\">\n                <img src=imgs/img-13.png class=\"img\" style=\"filter: blur(20px)\">\n                <div class=\"upvote\">\n                    <span class=\"upvote-count\">1416</span>\n                </div>\n            </div>\n        </div>\n    </div> \n    <br>\n    <p>Which one do you want to reveal?</p>","response":"arrowright","phase":"test","task":"choose","left_img":27,"left_upvote":280,"left_blur":42,"right_img":13,"right_upvote":1416,"right_blur":20,"check":true,"trial_type":"html-keyboard-response","trial_index":66,"time_elapsed":212591,"internal_node_id":"0.0-7.0-1.17","subject_id":"5c1a8a5e2a85450001a878cd","study_id":"6437092920136b88d7967a4f","session_id":"643887aecffe3d165c779a78"},{"rt":1351,"stimulus":"<div class=\"container\">\n        <div class=\"img-container\">\n            <div class=\"column\">\n                <img src=imgs/img-27.png class=\"img\" style=\"filter: blur(42px)\">\n                <div class=\"upvote\">\n                    <span class=\"upvote-count\">280</span>\n                </div>\n            </div>\n            <div class=\"column\">\n                <img src=imgs/img-13.png class=\"img\">\n                <div class=\"upvote\">\n                    <span class=\"upvote-count\">1416</span>\n                </div>\n            </div>\n        </div>\n    </div>   \n    <br>\n    <p>Press any key to continue.</p>","response":"arrowright","phase":"test","task":"reveal","trial_type":"html-keyboard-response","trial_index":67,"time_elapsed":213943,"internal_node_id":"0.0-7.0-2.17","subject_id":"5c1a8a5e2a85450001a878cd","study_id":"6437092920136b88d7967a4f","session_id":"643887aecffe3d165c779a78"},{"rt":null,"stimulus":"\n          <p>Trial 19 of 21</p>\n        ","response":null,"phase":"test","trial_type":"html-keyboard-response","trial_index":68,"time_elapsed":214944,"internal_node_id":"0.0-7.0-0.18","subject_id":"5c1a8a5e2a85450001a878cd","study_id":"6437092920136b88d7967a4f","session_id":"643887aecffe3d165c779a78"},{"rt":1893,"stimulus":"<div class=\"container\">\n        <div class=\"img-container\">\n            <div class=\"column\">\n                <img src=imgs/img-1.png class=\"img\" style=\"filter: blur(30px)\">\n                <div class=\"upvote\">\n                    <span class=\"upvote-count\">2059</span>\n                </div>\n            </div>\n            <div class=\"column\">\n                <img src=imgs/img-18.png class=\"img\" style=\"filter: blur(15px)\">\n                <div class=\"upvote\">\n                    <span class=\"upvote-count\">743</span>\n                </div>\n            </div>\n        </div>\n    </div> \n    <br>\n    <p>Which one do you want to reveal?</p>","response":"arrowleft","phase":"test","task":"choose","left_img":1,"left_upvote":2059,"left_blur":30,"right_img":18,"right_upvote":743,"right_blur":15,"check":true,"trial_type":"html-keyboard-response","trial_index":69,"time_elapsed":216838,"internal_node_id":"0.0-7.0-1.18","subject_id":"5c1a8a5e2a85450001a878cd","study_id":"6437092920136b88d7967a4f","session_id":"643887aecffe3d165c779a78"},{"rt":2536,"stimulus":"<div class=\"container\">\n        <div class=\"img-container\">\n            <div class=\"column\">\n                <img src=imgs/img-1.png class=\"img\">\n                <div class=\"upvote\">\n                    <span class=\"upvote-count\">2059</span>\n                </div>\n            </div>\n            <div class=\"column\">\n                <img src=imgs/img-18.png class=\"img\" style=\"filter: blur(15px)\">\n                <div class=\"upvote\">\n                    <span class=\"upvote-count\">743</span>\n                </div>\n            </div>\n        </div>\n    </div> \n    <br>\n    <p>Press any key to continue.</p>","response":"arrowleft","phase":"test","task":"reveal","trial_type":"html-keyboard-response","trial_index":70,"time_elapsed":219375,"internal_node_id":"0.0-7.0-2.18","subject_id":"5c1a8a5e2a85450001a878cd","study_id":"6437092920136b88d7967a4f","session_id":"643887aecffe3d165c779a78"},{"rt":null,"stimulus":"\n          <p>Trial 20 of 21</p>\n        ","response":null,"phase":"test","trial_type":"html-keyboard-response","trial_index":71,"time_elapsed":220376,"internal_node_id":"0.0-7.0-0.19","subject_id":"5c1a8a5e2a85450001a878cd","study_id":"6437092920136b88d7967a4f","session_id":"643887aecffe3d165c779a78"},{"rt":1039,"stimulus":"<div class=\"container\">\n        <div class=\"img-container\">\n            <div class=\"column\">\n                <img src=imgs/img-40.png class=\"img\" style=\"filter: blur(23px)\">\n                <div class=\"upvote\">\n                    <span class=\"upvote-count\">46</span>\n                </div>\n            </div>\n            <div class=\"column\">\n                <img src=imgs/img-29.png class=\"img\" style=\"filter: blur(33px)\">\n                <div class=\"upvote\">\n                    <span class=\"upvote-count\">265</span>\n                </div>\n            </div>\n        </div>\n    </div> \n    <br>\n    <p>Which one do you want to reveal?</p>","response":"arrowleft","phase":"test","task":"choose","left_img":40,"left_upvote":46,"left_blur":23,"right_img":29,"right_upvote":265,"right_blur":33,"check":true,"trial_type":"html-keyboard-response","trial_index":72,"time_elapsed":221416,"internal_node_id":"0.0-7.0-1.19","subject_id":"5c1a8a5e2a85450001a878cd","study_id":"6437092920136b88d7967a4f","session_id":"643887aecffe3d165c779a78"},{"rt":6302,"stimulus":"<div class=\"container\">\n        <div class=\"img-container\">\n            <div class=\"column\">\n                <img src=imgs/img-40.png class=\"img\">\n                <div class=\"upvote\">\n                    <span class=\"upvote-count\">46</span>\n                </div>\n            </div>\n            <div class=\"column\">\n                <img src=imgs/img-29.png class=\"img\" style=\"filter: blur(33px)\">\n                <div class=\"upvote\">\n                    <span class=\"upvote-count\">265</span>\n                </div>\n            </div>\n        </div>\n    </div> \n    <br>\n    <p>Press any key to continue.</p>","response":"arrowdown","phase":"test","task":"reveal","trial_type":"html-keyboard-response","trial_index":73,"time_elapsed":227719,"internal_node_id":"0.0-7.0-2.19","subject_id":"5c1a8a5e2a85450001a878cd","study_id":"6437092920136b88d7967a4f","session_id":"643887aecffe3d165c779a78"},{"rt":null,"stimulus":"\n          <p>Trial 21 of 21</p>\n        ","response":null,"phase":"test","trial_type":"html-keyboard-response","trial_index":74,"time_elapsed":228720,"internal_node_id":"0.0-7.0-0.20","subject_id":"5c1a8a5e2a85450001a878cd","study_id":"6437092920136b88d7967a4f","session_id":"643887aecffe3d165c779a78"},{"rt":438,"stimulus":"<div class=\"container\">\n        <div class=\"img-container\">\n            <div class=\"column\">\n                <img src=imgs/img-5.png class=\"img\" style=\"filter: blur(19px)\">\n                <div class=\"upvote\">\n                    <span class=\"upvote-count\">1302</span>\n                </div>\n            </div>\n            <div class=\"column\">\n                <img src=imgs/img-34.png class=\"img\" style=\"filter: blur(37px)\">\n                <div class=\"upvote\">\n                    <span class=\"upvote-count\">124</span>\n                </div>\n            </div>\n        </div>\n    </div> \n    <br>\n    <p>Which one do you want to reveal?</p>","response":"arrowright","phase":"test","task":"choose","left_img":5,"left_upvote":1302,"left_blur":19,"right_img":34,"right_upvote":124,"right_blur":37,"check":false,"trial_type":"html-keyboard-response","trial_index":75,"time_elapsed":229159,"internal_node_id":"0.0-7.0-1.20","subject_id":"5c1a8a5e2a85450001a878cd","study_id":"6437092920136b88d7967a4f","session_id":"643887aecffe3d165c779a78"},{"rt":null,"stimulus":"\n        <p>You are responding too fast.  </p>\n        <p>Please spend a bit more time looking at each image next time. </p>\n        ","response":null,"phase":"test","task":"reveal","trial_type":"html-keyboard-response","trial_index":76,"time_elapsed":231175,"internal_node_id":"0.0-7.0-2.20","subject_id":"5c1a8a5e2a85450001a878cd","study_id":"6437092920136b88d7967a4f","session_id":"643887aecffe3d165c779a78"}]