[{"success":true,"timeout":false,"failed_images":[],"failed_audio":[],"failed_video":[],"trial_type":"preload","trial_index":0,"time_elapsed":1913,"internal_node_id":"0.0-0.0","subject_id":"602adfcb43d65719cc7f9470","study_id":"6437092920136b88d7967a4f","session_id":"64388b0c990c39ddcc3f6673"},{"rt":2807,"stimulus":"<p>Welcome to the experiment</p><br><p>Press any key to begin.</p>","response":" ","trial_type":"html-keyboard-response","trial_index":1,"time_elapsed":4721,"internal_node_id":"0.0-1.0","subject_id":"602adfcb43d65719cc7f9470","study_id":"6437092920136b88d7967a4f","session_id":"64388b0c990c39ddcc3f6673"},{"rt":null,"stimulus":"\n        <p>In each trial, you will see two different images sourced from a popular social platform.</p>\n        <p>Each image will have an upvote count above it.</p>\n        <p>An upvote is a like given by users of the platform and helps promote quality content and discussion on the platform.</p>\n        <p>A higher upvote count means more people like the post and recommend it to other users.</p>\n        <br>\n        <p>Press any key to continue.</p>\n      ","response":null,"trial_type":"html-keyboard-response","trial_index":2,"time_elapsed":6726,"internal_node_id":"0.0-2.0-0.0","subject_id":"602adfcb43d65719cc7f9470","study_id":"6437092920136b88d7967a4f","session_id":"64388b0c990c39ddcc3f6673"},{"rt":32279,"stimulus":"\n        <p>In each trial, you will see two different images sourced from a popular social platform.</p>\n        <p>Each image will have an upvote count above it.</p>\n        <p>An upvote is a like given by users of the platform and helps promote quality content and discussion on the platform.</p>\n        <p>A higher upvote count means more people like the post and recommend it to other users.</p>\n        <br>\n        <p>Press any key to continue.</p>\n      ","response":" ","trial_type":"html-keyboard-response","trial_index":3,"time_elapsed":39006,"internal_node_id":"0.0-2.0-1.0","subject_id":"602adfcb43d65719cc7f9470","study_id":"6437092920136b88d7967a4f","session_id":"64388b0c990c39ddcc3f6673"},{"rt":null,"stimulus":"\n        <p>At the start of every trial, both images will be blurred.</p>\n        <p>The image you select will unblur itself, and the other one will stay the same.</p>\n        <p>Please take some time to consider both images and their upvote counts. If you respond too fast, you will not see the image.</p>\n        <br>\n        <p>Press any key to continue.</p>\n      ","response":null,"trial_type":"html-keyboard-response","trial_index":4,"time_elapsed":41015,"internal_node_id":"0.0-2.0-2.0","subject_id":"602adfcb43d65719cc7f9470","study_id":"6437092920136b88d7967a4f","session_id":"64388b0c990c39ddcc3f6673"},{"rt":16890,"stimulus":"\n        <p>At the start of every trial, both images will be blurred.</p>\n        <p>The image you select will unblur itself, and the other one will stay the same.</p>\n        <p>Please take some time to consider both images and their upvote counts. If you respond too fast, you will not see the image.</p>\n        <br>\n        <p>Press any key to continue.</p>\n      ","response":" ","trial_type":"html-keyboard-response","trial_index":5,"time_elapsed":57906,"internal_node_id":"0.0-2.0-3.0","subject_id":"602adfcb43d65719cc7f9470","study_id":"6437092920136b88d7967a4f","session_id":"64388b0c990c39ddcc3f6673"},{"rt":null,"stimulus":"\n        <p>We will now go through 2 practice trials.</p>\n        <p>Press “←” on your keyboard to select the left image or “→” to select the right image.</p>\n        <br>\n        <p>On the next slide, you will see the images.</p>\n        <p>Press any key to continue.</p>\n      ","response":null,"trial_type":"html-keyboard-response","trial_index":6,"time_elapsed":59919,"internal_node_id":"0.0-2.0-4.0","subject_id":"602adfcb43d65719cc7f9470","study_id":"6437092920136b88d7967a4f","session_id":"64388b0c990c39ddcc3f6673"},{"rt":7074,"stimulus":"\n        <p>We will now go through 2 practice trials.</p>\n        <p>Press “←” on your keyboard to select the left image or “→” to select the right image.</p>\n        <br>\n        <p>On the next slide, you will see the images.</p>\n        <p>Press any key to continue.</p>\n      ","response":" ","trial_type":"html-keyboard-response","trial_index":7,"time_elapsed":66994,"internal_node_id":"0.0-2.0-5.0","subject_id":"602adfcb43d65719cc7f9470","study_id":"6437092920136b88d7967a4f","session_id":"64388b0c990c39ddcc3f6673"},{"rt":2104,"stimulus":"<div class=\"container\">\n        <div class=\"img-container\">\n            <div class=\"column\">\n                <img src=imgs/img-prac-1.jpg class=\"img\" style=\"filter: blur(40px)\">\n                <div class=\"upvote\">\n                    <span class=\"upvote-count\">78</span>\n                </div>\n            </div>\n            <div class=\"column\">\n                <img src=imgs/img-prac-2.png class=\"img\" style=\"filter: blur(20px)\">\n                <div class=\"upvote\">\n                    <span class=\"upvote-count\">898</span>\n                </div>\n            </div>\n        </div>\n    </div> \n    <br>\n    <p>Which one do you want to reveal?</p>","response":"arrowright","phase":"practice_1","task":"choose","left_upvote":78,"left_blur":40,"right_upvote":898,"right_blur":20,"check":true,"trial_type":"html-keyboard-response","trial_index":8,"time_elapsed":69100,"internal_node_id":"0.0-3.0-0.0","subject_id":"602adfcb43d65719cc7f9470","study_id":"6437092920136b88d7967a4f","session_id":"64388b0c990c39ddcc3f6673"},{"rt":3536,"stimulus":"<div class=\"container\">\n        <div class=\"img-container\">\n            <div class=\"column\">\n                <img src=imgs/img-prac-1.jpg class=\"img\" style=\"filter: blur(40px)\">\n                <div class=\"upvote\">\n                    <span class=\"upvote-count\">78</span>\n                </div>\n            </div>\n            <div class=\"column\">\n                <img src=imgs/img-prac-2.png class=\"img\">\n                <div class=\"upvote\">\n                    <span class=\"upvote-count\">898</span>\n                </div>\n            </div>\n        </div>\n    </div>   \n    <br>\n    <p>Press any key to continue.</p>","response":" ","phase":"practice_1","task":"reveal","trial_type":"html-keyboard-response","trial_index":9,"time_elapsed":72638,"internal_node_id":"0.0-3.0-1.0","subject_id":"602adfcb43d65719cc7f9470","study_id":"6437092920136b88d7967a4f","session_id":"64388b0c990c39ddcc3f6673"},{"rt":4602,"stimulus":"\n        <p>Great! Now try that with a different pair of images.</p>\n        <br>\n        <p>Press any key to continue.</p>\n      ","response":" ","trial_type":"html-keyboard-response","trial_index":10,"time_elapsed":77241,"internal_node_id":"0.0-4.0-0.0","subject_id":"602adfcb43d65719cc7f9470","study_id":"6437092920136b88d7967a4f","session_id":"64388b0c990c39ddcc3f6673"},{"rt":1406,"stimulus":"<div class=\"container\">\n        <div class=\"img-container\">\n            <div class=\"column\">\n                <img src=imgs/img-prac-3.png class=\"img\" style=\"filter: blur(10px)\">\n                <div class=\"upvote\">\n                    <span class=\"upvote-count\">1149</span>\n                </div>\n            </div>\n            <div class=\"column\">\n                <img src=imgs/img-prac-4.png class=\"img\" style=\"filter: blur(15px)\">\n                <div class=\"upvote\">\n                    <span class=\"upvote-count\">1529</span>\n                </div>\n            </div>\n        </div>\n    </div> \n    <br>\n    <p>Which one do you want to reveal?</p>","response":"arrowright","phase":"practice_2","task":"choose","left_upvote":1149,"left_blur":10,"right_upvote":1529,"right_blur":15,"check":true,"trial_type":"html-keyboard-response","trial_index":11,"time_elapsed":78650,"internal_node_id":"0.0-5.0-0.0","subject_id":"602adfcb43d65719cc7f9470","study_id":"6437092920136b88d7967a4f","session_id":"64388b0c990c39ddcc3f6673"},{"rt":9784,"stimulus":"<div class=\"container\">\n        <div class=\"img-container\">\n            <div class=\"column\">\n                <img src=imgs/img-prac-3.png class=\"img\" style=\"filter: blur(10px)\">\n                <div class=\"upvote\">\n                    <span class=\"upvote-count\">1149</span>\n                </div>\n            </div>\n            <div class=\"column\">\n                <img src=imgs/img-prac-4.png class=\"img\">\n                <div class=\"upvote\">\n                    <span class=\"upvote-count\">1529</span>\n                </div>\n            </div>\n        </div>\n    </div>   \n    <br>\n    <p>Press any key to continue.</p>","response":" ","phase":"practice_2","task":"reveal","trial_type":"html-keyboard-response","trial_index":12,"time_elapsed":88435,"internal_node_id":"0.0-5.0-1.0","subject_id":"602adfcb43d65719cc7f9470","study_id":"6437092920136b88d7967a4f","session_id":"64388b0c990c39ddcc3f6673"},{"rt":9731,"stimulus":"\n        <p>You have completed the tutorial!</p>\n        <p>The experiment will begin starting from the next slide.</p>\n        <p>There are 21 trials in the experiment.</p>\n        <br>\n        <p>Press any key to continue when you are ready.</p>\n      ","response":" ","trial_type":"html-keyboard-response","trial_index":13,"time_elapsed":98166,"internal_node_id":"0.0-6.0","subject_id":"602adfcb43d65719cc7f9470","study_id":"6437092920136b88d7967a4f","session_id":"64388b0c990c39ddcc3f6673"},{"rt":null,"stimulus":"\n          <p>Trial 1 of 21</p>\n        ","response":null,"phase":"test","trial_type":"html-keyboard-response","trial_index":14,"time_elapsed":99174,"internal_node_id":"0.0-7.0-0.0","subject_id":"602adfcb43d65719cc7f9470","study_id":"6437092920136b88d7967a4f","session_id":"64388b0c990c39ddcc3f6673"},{"rt":1882,"stimulus":"<div class=\"container\">\n        <div class=\"img-container\">\n            <div class=\"column\">\n                <img src=imgs/img-21.png class=\"img\" style=\"filter: blur(18px)\">\n                <div class=\"upvote\">\n                    <span class=\"upvote-count\">510</span>\n                </div>\n            </div>\n            <div class=\"column\">\n                <img src=imgs/img-7.png class=\"img\" style=\"filter: blur(37px)\">\n                <div class=\"upvote\">\n                    <span class=\"upvote-count\">1006</span>\n                </div>\n            </div>\n        </div>\n    </div> \n    <br>\n    <p>Which one do you want to reveal?</p>","response":"arrowleft","phase":"test","task":"choose","left_img":21,"left_upvote":510,"left_blur":18,"right_img":7,"right_upvote":1006,"right_blur":37,"check":true,"trial_type":"html-keyboard-response","trial_index":15,"time_elapsed":101057,"internal_node_id":"0.0-7.0-1.0","subject_id":"602adfcb43d65719cc7f9470","study_id":"6437092920136b88d7967a4f","session_id":"64388b0c990c39ddcc3f6673"},{"rt":2839,"stimulus":"<div class=\"container\">\n        <div class=\"img-container\">\n            <div class=\"column\">\n                <img src=imgs/img-21.png class=\"img\">\n                <div class=\"upvote\">\n                    <span class=\"upvote-count\">510</span>\n                </div>\n            </div>\n            <div class=\"column\">\n                <img src=imgs/img-7.png class=\"img\" style=\"filter: blur(37px)\">\n                <div class=\"upvote\">\n                    <span class=\"upvote-count\">1006</span>\n                </div>\n            </div>\n        </div>\n    </div> \n    <br>\n    <p>Press any key to continue.</p>","response":" ","phase":"test","task":"reveal","trial_type":"html-keyboard-response","trial_index":16,"time_elapsed":103897,"internal_node_id":"0.0-7.0-2.0","subject_id":"602adfcb43d65719cc7f9470","study_id":"6437092920136b88d7967a4f","session_id":"64388b0c990c39ddcc3f6673"},{"rt":null,"stimulus":"\n          <p>Trial 2 of 21</p>\n        ","response":null,"phase":"test","trial_type":"html-keyboard-response","trial_index":17,"time_elapsed":104911,"internal_node_id":"0.0-7.0-0.1","subject_id":"602adfcb43d65719cc7f9470","study_id":"6437092920136b88d7967a4f","session_id":"64388b0c990c39ddcc3f6673"},{"rt":3519,"stimulus":"<div class=\"container\">\n        <div class=\"img-container\">\n            <div class=\"column\">\n                <img src=imgs/img-4.png class=\"img\" style=\"filter: blur(25px)\">\n                <div class=\"upvote\">\n                    <span class=\"upvote-count\">1617</span>\n                </div>\n            </div>\n            <div class=\"column\">\n                <img src=imgs/img-9.png class=\"img\" style=\"filter: blur(15px)\">\n                <div class=\"upvote\">\n                    <span class=\"upvote-count\">686</span>\n                </div>\n            </div>\n        </div>\n    </div> \n    <br>\n    <p>Which one do you want to reveal?</p>","response":"arrowright","phase":"test","task":"choose","left_img":4,"left_upvote":1617,"left_blur":25,"right_img":9,"right_upvote":686,"right_blur":15,"check":true,"trial_type":"html-keyboard-response","trial_index":18,"time_elapsed":108432,"internal_node_id":"0.0-7.0-1.1","subject_id":"602adfcb43d65719cc7f9470","study_id":"6437092920136b88d7967a4f","session_id":"64388b0c990c39ddcc3f6673"},{"rt":2219,"stimulus":"<div class=\"container\">\n        <div class=\"img-container\">\n            <div class=\"column\">\n                <img src=imgs/img-4.png class=\"img\" style=\"filter: blur(25px)\">\n                <div class=\"upvote\">\n                    <span class=\"upvote-count\">1617</span>\n                </div>\n            </div>\n            <div class=\"column\">\n                <img src=imgs/img-9.png class=\"img\">\n                <div class=\"upvote\">\n                    <span class=\"upvote-count\">686</span>\n                </div>\n            </div>\n        </div>\n    </div>   \n    <br>\n    <p>Press any key to continue.</p>","response":" ","phase":"test","task":"reveal","trial_type":"html-keyboard-response","trial_index":19,"time_elapsed":110651,"internal_node_id":"0.0-7.0-2.1","subject_id":"602adfcb43d65719cc7f9470","study_id":"6437092920136b88d7967a4f","session_id":"64388b0c990c39ddcc3f6673"},{"rt":null,"stimulus":"\n          <p>Trial 3 of 21</p>\n        ","response":null,"phase":"test","trial_type":"html-keyboard-response","trial_index":20,"time_elapsed":111660,"internal_node_id":"0.0-7.0-0.2","subject_id":"602adfcb43d65719cc7f9470","study_id":"6437092920136b88d7967a4f","session_id":"64388b0c990c39ddcc3f6673"},{"rt":1836,"stimulus":"<div class=\"container\">\n        <div class=\"img-container\">\n            <div class=\"column\">\n                <img src=imgs/img-22.png class=\"img\" style=\"filter: blur(13px)\">\n                <div class=\"upvote\">\n                    <span class=\"upvote-count\">499</span>\n                </div>\n            </div>\n            <div class=\"column\">\n                <img src=imgs/img-33.png class=\"img\" style=\"filter: blur(25px)\">\n                <div class=\"upvote\">\n                    <span class=\"upvote-count\">134</span>\n                </div>\n            </div>\n        </div>\n    </div> \n    <br>\n    <p>Which one do you want to reveal?</p>","response":"arrowleft","phase":"test","task":"choose","left_img":22,"left_upvote":499,"left_blur":13,"right_img":33,"right_upvote":134,"right_blur":25,"check":true,"trial_type":"html-keyboard-response","trial_index":21,"time_elapsed":113498,"internal_node_id":"0.0-7.0-1.2","subject_id":"602adfcb43d65719cc7f9470","study_id":"6437092920136b88d7967a4f","session_id":"64388b0c990c39ddcc3f6673"},{"rt":2055,"stimulus":"<div class=\"container\">\n        <div class=\"img-container\">\n            <div class=\"column\">\n                <img src=imgs/img-22.png class=\"img\">\n                <div class=\"upvote\">\n                    <span class=\"upvote-count\">499</span>\n                </div>\n            </div>\n            <div class=\"column\">\n                <img src=imgs/img-33.png class=\"img\" style=\"filter: blur(25px)\">\n                <div class=\"upvote\">\n                    <span class=\"upvote-count\">134</span>\n                </div>\n            </div>\n        </div>\n    </div> \n    <br>\n    <p>Press any key to continue.</p>","response":" ","phase":"test","task":"reveal","trial_type":"html-keyboard-response","trial_index":22,"time_elapsed":115554,"internal_node_id":"0.0-7.0-2.2","subject_id":"602adfcb43d65719cc7f9470","study_id":"6437092920136b88d7967a4f","session_id":"64388b0c990c39ddcc3f6673"},{"rt":null,"stimulus":"\n          <p>Trial 4 of 21</p>\n        ","response":null,"phase":"test","trial_type":"html-keyboard-response","trial_index":23,"time_elapsed":116562,"internal_node_id":"0.0-7.0-0.3","subject_id":"602adfcb43d65719cc7f9470","study_id":"6437092920136b88d7967a4f","session_id":"64388b0c990c39ddcc3f6673"},{"rt":1818,"stimulus":"<div class=\"container\">\n        <div class=\"img-container\">\n            <div class=\"column\">\n                <img src=imgs/img-41.png class=\"img\" style=\"filter: blur(29px)\">\n                <div class=\"upvote\">\n                    <span class=\"upvote-count\">64</span>\n                </div>\n            </div>\n            <div class=\"column\">\n                <img src=imgs/img-23.png class=\"img\" style=\"filter: blur(19px)\">\n                <div class=\"upvote\">\n                    <span class=\"upvote-count\">394</span>\n                </div>\n            </div>\n        </div>\n    </div> \n    <br>\n    <p>Which one do you want to reveal?</p>","response":"arrowright","phase":"test","task":"choose","left_img":41,"left_upvote":64,"left_blur":29,"right_img":23,"right_upvote":394,"right_blur":19,"check":true,"trial_type":"html-keyboard-response","trial_index":24,"time_elapsed":118381,"internal_node_id":"0.0-7.0-1.3","subject_id":"602adfcb43d65719cc7f9470","study_id":"6437092920136b88d7967a4f","session_id":"64388b0c990c39ddcc3f6673"},{"rt":1450,"stimulus":"<div class=\"container\">\n        <div class=\"img-container\">\n            <div class=\"column\">\n                <img src=imgs/img-41.png class=\"img\" style=\"filter: blur(29px)\">\n                <div class=\"upvote\">\n                    <span class=\"upvote-count\">64</span>\n                </div>\n            </div>\n            <div class=\"column\">\n                <img src=imgs/img-23.png class=\"img\">\n                <div class=\"upvote\">\n                    <span class=\"upvote-count\">394</span>\n                </div>\n            </div>\n        </div>\n    </div>   \n    <br>\n    <p>Press any key to continue.</p>","response":" ","phase":"test","task":"reveal","trial_type":"html-keyboard-response","trial_index":25,"time_elapsed":119832,"internal_node_id":"0.0-7.0-2.3","subject_id":"602adfcb43d65719cc7f9470","study_id":"6437092920136b88d7967a4f","session_id":"64388b0c990c39ddcc3f6673"},{"rt":null,"stimulus":"\n          <p>Trial 5 of 21</p>\n        ","response":null,"phase":"test","trial_type":"html-keyboard-response","trial_index":26,"time_elapsed":120834,"internal_node_id":"0.0-7.0-0.4","subject_id":"602adfcb43d65719cc7f9470","study_id":"6437092920136b88d7967a4f","session_id":"64388b0c990c39ddcc3f6673"},{"rt":3062,"stimulus":"<div class=\"container\">\n        <div class=\"img-container\">\n            <div class=\"column\">\n                <img src=imgs/img-40.png class=\"img\" style=\"filter: blur(13px)\">\n                <div class=\"upvote\">\n                    <span class=\"upvote-count\">46</span>\n                </div>\n            </div>\n            <div class=\"column\">\n                <img src=imgs/img-26.png class=\"img\" style=\"filter: blur(33px)\">\n                <div class=\"upvote\">\n                    <span class=\"upvote-count\">355</span>\n                </div>\n            </div>\n        </div>\n    </div> \n    <br>\n    <p>Which one do you want to reveal?</p>","response":"arrowright","phase":"test","task":"choose","left_img":40,"left_upvote":46,"left_blur":13,"right_img":26,"right_upvote":355,"right_blur":33,"check":true,"trial_type":"html-keyboard-response","trial_index":27,"time_elapsed":123897,"internal_node_id":"0.0-7.0-1.4","subject_id":"602adfcb43d65719cc7f9470","study_id":"6437092920136b88d7967a4f","session_id":"64388b0c990c39ddcc3f6673"},{"rt":2114,"stimulus":"<div class=\"container\">\n        <div class=\"img-container\">\n            <div class=\"column\">\n                <img src=imgs/img-40.png class=\"img\" style=\"filter: blur(13px)\">\n                <div class=\"upvote\">\n                    <span class=\"upvote-count\">46</span>\n                </div>\n            </div>\n            <div class=\"column\">\n                <img src=imgs/img-26.png class=\"img\">\n                <div class=\"upvote\">\n                    <span class=\"upvote-count\">355</span>\n                </div>\n            </div>\n        </div>\n    </div>   \n    <br>\n    <p>Press any key to continue.</p>","response":" ","phase":"test","task":"reveal","trial_type":"html-keyboard-response","trial_index":28,"time_elapsed":126013,"internal_node_id":"0.0-7.0-2.4","subject_id":"602adfcb43d65719cc7f9470","study_id":"6437092920136b88d7967a4f","session_id":"64388b0c990c39ddcc3f6673"},{"rt":null,"stimulus":"\n          <p>Trial 6 of 21</p>\n        ","response":null,"phase":"test","trial_type":"html-keyboard-response","trial_index":29,"time_elapsed":127020,"internal_node_id":"0.0-7.0-0.5","subject_id":"602adfcb43d65719cc7f9470","study_id":"6437092920136b88d7967a4f","session_id":"64388b0c990c39ddcc3f6673"},{"rt":1383,"stimulus":"<div class=\"container\">\n        <div class=\"img-container\">\n            <div class=\"column\">\n                <img src=imgs/img-16.png class=\"img\" style=\"filter: blur(20px)\">\n                <div class=\"upvote\">\n                    <span class=\"upvote-count\">845</span>\n                </div>\n            </div>\n            <div class=\"column\">\n                <img src=imgs/img-39.png class=\"img\" style=\"filter: blur(44px)\">\n                <div class=\"upvote\">\n                    <span class=\"upvote-count\">70</span>\n                </div>\n            </div>\n        </div>\n    </div> \n    <br>\n    <p>Which one do you want to reveal?</p>","response":"arrowleft","phase":"test","task":"choose","left_img":16,"left_upvote":845,"left_blur":20,"right_img":39,"right_upvote":70,"right_blur":44,"check":true,"trial_type":"html-keyboard-response","trial_index":30,"time_elapsed":128404,"internal_node_id":"0.0-7.0-1.5","subject_id":"602adfcb43d65719cc7f9470","study_id":"6437092920136b88d7967a4f","session_id":"64388b0c990c39ddcc3f6673"},{"rt":299,"stimulus":"<div class=\"container\">\n        <div class=\"img-container\">\n            <div class=\"column\">\n                <img src=imgs/img-16.png class=\"img\">\n                <div class=\"upvote\">\n                    <span class=\"upvote-count\">845</span>\n                </div>\n            </div>\n            <div class=\"column\">\n                <img src=imgs/img-39.png class=\"img\" style=\"filter: blur(44px)\">\n                <div class=\"upvote\">\n                    <span class=\"upvote-count\">70</span>\n                </div>\n            </div>\n        </div>\n    </div> \n    <br>\n    <p>Press any key to continue.</p>","response":" ","phase":"test","task":"reveal","trial_type":"html-keyboard-response","trial_index":31,"time_elapsed":128703,"internal_node_id":"0.0-7.0-2.5","subject_id":"602adfcb43d65719cc7f9470","study_id":"6437092920136b88d7967a4f","session_id":"64388b0c990c39ddcc3f6673"},{"rt":null,"stimulus":"\n          <p>Trial 7 of 21</p>\n        ","response":null,"phase":"test","trial_type":"html-keyboard-response","trial_index":32,"time_elapsed":129711,"internal_node_id":"0.0-7.0-0.6","subject_id":"602adfcb43d65719cc7f9470","study_id":"6437092920136b88d7967a4f","session_id":"64388b0c990c39ddcc3f6673"},{"rt":1322,"stimulus":"<div class=\"container\">\n        <div class=\"img-container\">\n            <div class=\"column\">\n                <img src=imgs/img-30.png class=\"img\" style=\"filter: blur(9px)\">\n                <div class=\"upvote\">\n                    <span class=\"upvote-count\">206</span>\n                </div>\n            </div>\n            <div class=\"column\">\n                <img src=imgs/img-10.png class=\"img\" style=\"filter: blur(23px)\">\n                <div class=\"upvote\">\n                    <span class=\"upvote-count\">3817</span>\n                </div>\n            </div>\n        </div>\n    </div> \n    <br>\n    <p>Which one do you want to reveal?</p>","response":"arrowright","phase":"test","task":"choose","left_img":30,"left_upvote":206,"left_blur":9,"right_img":10,"right_upvote":3817,"right_blur":23,"check":true,"trial_type":"html-keyboard-response","trial_index":33,"time_elapsed":131034,"internal_node_id":"0.0-7.0-1.6","subject_id":"602adfcb43d65719cc7f9470","study_id":"6437092920136b88d7967a4f","session_id":"64388b0c990c39ddcc3f6673"},{"rt":2415,"stimulus":"<div class=\"container\">\n        <div class=\"img-container\">\n            <div class=\"column\">\n                <img src=imgs/img-30.png class=\"img\" style=\"filter: blur(9px)\">\n                <div class=\"upvote\">\n                    <span class=\"upvote-count\">206</span>\n                </div>\n            </div>\n            <div class=\"column\">\n                <img src=imgs/img-10.png class=\"img\">\n                <div class=\"upvote\">\n                    <span class=\"upvote-count\">3817</span>\n                </div>\n            </div>\n        </div>\n    </div>   \n    <br>\n    <p>Press any key to continue.</p>","response":" ","phase":"test","task":"reveal","trial_type":"html-keyboard-response","trial_index":34,"time_elapsed":133451,"internal_node_id":"0.0-7.0-2.6","subject_id":"602adfcb43d65719cc7f9470","study_id":"6437092920136b88d7967a4f","session_id":"64388b0c990c39ddcc3f6673"},{"rt":null,"stimulus":"\n          <p>Trial 8 of 21</p>\n        ","response":null,"phase":"test","trial_type":"html-keyboard-response","trial_index":35,"time_elapsed":134463,"internal_node_id":"0.0-7.0-0.7","subject_id":"602adfcb43d65719cc7f9470","study_id":"6437092920136b88d7967a4f","session_id":"64388b0c990c39ddcc3f6673"},{"rt":1120,"stimulus":"<div class=\"container\">\n        <div class=\"img-container\">\n            <div class=\"column\">\n                <img src=imgs/img-6.png class=\"img\" style=\"filter: blur(21px)\">\n                <div class=\"upvote\">\n                    <span class=\"upvote-count\">1072</span>\n                </div>\n            </div>\n            <div class=\"column\">\n                <img src=imgs/img-25.png class=\"img\" style=\"filter: blur(16px)\">\n                <div class=\"upvote\">\n                    <span class=\"upvote-count\">384</span>\n                </div>\n            </div>\n        </div>\n    </div> \n    <br>\n    <p>Which one do you want to reveal?</p>","response":"arrowleft","phase":"test","task":"choose","left_img":6,"left_upvote":1072,"left_blur":21,"right_img":25,"right_upvote":384,"right_blur":16,"check":true,"trial_type":"html-keyboard-response","trial_index":36,"time_elapsed":135584,"internal_node_id":"0.0-7.0-1.7","subject_id":"602adfcb43d65719cc7f9470","study_id":"6437092920136b88d7967a4f","session_id":"64388b0c990c39ddcc3f6673"},{"rt":2647,"stimulus":"<div class=\"container\">\n        <div class=\"img-container\">\n            <div class=\"column\">\n                <img src=imgs/img-6.png class=\"img\">\n                <div class=\"upvote\">\n                    <span class=\"upvote-count\">1072</span>\n                </div>\n            </div>\n            <div class=\"column\">\n                <img src=imgs/img-25.png class=\"img\" style=\"filter: blur(16px)\">\n                <div class=\"upvote\">\n                    <span class=\"upvote-count\">384</span>\n                </div>\n            </div>\n        </div>\n    </div> \n    <br>\n    <p>Press any key to continue.</p>","response":" ","phase":"test","task":"reveal","trial_type":"html-keyboard-response","trial_index":37,"time_elapsed":138232,"internal_node_id":"0.0-7.0-2.7","subject_id":"602adfcb43d65719cc7f9470","study_id":"6437092920136b88d7967a4f","session_id":"64388b0c990c39ddcc3f6673"},{"rt":null,"stimulus":"\n          <p>Trial 9 of 21</p>\n        ","response":null,"phase":"test","trial_type":"html-keyboard-response","trial_index":38,"time_elapsed":139239,"internal_node_id":"0.0-7.0-0.8","subject_id":"602adfcb43d65719cc7f9470","study_id":"6437092920136b88d7967a4f","session_id":"64388b0c990c39ddcc3f6673"},{"rt":1934,"stimulus":"<div class=\"container\">\n        <div class=\"img-container\">\n            <div class=\"column\">\n                <img src=imgs/img-24.png class=\"img\" style=\"filter: blur(7px)\">\n                <div class=\"upvote\">\n                    <span class=\"upvote-count\">682</span>\n                </div>\n            </div>\n            <div class=\"column\">\n                <img src=imgs/img-29.png class=\"img\" style=\"filter: blur(31px)\">\n                <div class=\"upvote\">\n                    <span class=\"upvote-count\">265</span>\n                </div>\n            </div>\n        </div>\n    </div> \n    <br>\n    <p>Which one do you want to reveal?</p>","response":"arrowleft","phase":"test","task":"choose","left_img":24,"left_upvote":682,"left_blur":7,"right_img":29,"right_upvote":265,"right_blur":31,"check":true,"trial_type":"html-keyboard-response","trial_index":39,"time_elapsed":141174,"internal_node_id":"0.0-7.0-1.8","subject_id":"602adfcb43d65719cc7f9470","study_id":"6437092920136b88d7967a4f","session_id":"64388b0c990c39ddcc3f6673"},{"rt":2654,"stimulus":"<div class=\"container\">\n        <div class=\"img-container\">\n            <div class=\"column\">\n                <img src=imgs/img-24.png class=\"img\">\n                <div class=\"upvote\">\n                    <span class=\"upvote-count\">682</span>\n                </div>\n            </div>\n            <div class=\"column\">\n                <img src=imgs/img-29.png class=\"img\" style=\"filter: blur(31px)\">\n                <div class=\"upvote\">\n                    <span class=\"upvote-count\">265</span>\n                </div>\n            </div>\n        </div>\n    </div> \n    <br>\n    <p>Press any key to continue.</p>","response":" ","phase":"test","task":"reveal","trial_type":"html-keyboard-response","trial_index":40,"time_elapsed":143829,"internal_node_id":"0.0-7.0-2.8","subject_id":"602adfcb43d65719cc7f9470","study_id":"6437092920136b88d7967a4f","session_id":"64388b0c990c39ddcc3f6673"},{"rt":null,"stimulus":"\n          <p>Trial 10 of 21</p>\n        ","response":null,"phase":"test","trial_type":"html-keyboard-response","trial_index":41,"time_elapsed":144836,"internal_node_id":"0.0-7.0-0.9","subject_id":"602adfcb43d65719cc7f9470","study_id":"6437092920136b88d7967a4f","session_id":"64388b0c990c39ddcc3f6673"},{"rt":52,"stimulus":"<div class=\"container\">\n        <div class=\"img-container\">\n            <div class=\"column\">\n                <img src=imgs/img-38.png class=\"img\" style=\"filter: blur(20px)\">\n                <div class=\"upvote\">\n                    <span class=\"upvote-count\">24</span>\n                </div>\n            </div>\n            <div class=\"column\">\n                <img src=imgs/img-12.png class=\"img\" style=\"filter: blur(19px)\">\n                <div class=\"upvote\">\n                    <span class=\"upvote-count\">1676</span>\n                </div>\n            </div>\n        </div>\n    </div> \n    <br>\n    <p>Which one do you want to reveal?</p>","response":"arrowleft","phase":"test","task":"choose","left_img":38,"left_upvote":24,"left_blur":20,"right_img":12,"right_upvote":1676,"right_blur":19,"check":false,"trial_type":"html-keyboard-response","trial_index":42,"time_elapsed":144889,"internal_node_id":"0.0-7.0-1.9","subject_id":"602adfcb43d65719cc7f9470","study_id":"6437092920136b88d7967a4f","session_id":"64388b0c990c39ddcc3f6673"},{"rt":null,"stimulus":"\n        <p>You are responding too fast.  </p>\n        <p>Please spend a bit more time looking at each image next time. </p>\n        ","response":null,"phase":"test","task":"reveal","trial_type":"html-keyboard-response","trial_index":43,"time_elapsed":146895,"internal_node_id":"0.0-7.0-2.9","subject_id":"602adfcb43d65719cc7f9470","study_id":"6437092920136b88d7967a4f","session_id":"64388b0c990c39ddcc3f6673"},{"rt":null,"stimulus":"\n          <p>Trial 11 of 21</p>\n        ","response":null,"phase":"test","trial_type":"html-keyboard-response","trial_index":44,"time_elapsed":147900,"internal_node_id":"0.0-7.0-0.10","subject_id":"602adfcb43d65719cc7f9470","study_id":"6437092920136b88d7967a4f","session_id":"64388b0c990c39ddcc3f6673"},{"rt":993,"stimulus":"<div class=\"container\">\n        <div class=\"img-container\">\n            <div class=\"column\">\n                <img src=imgs/img-19.png class=\"img\" style=\"filter: blur(21px)\">\n                <div class=\"upvote\">\n                    <span class=\"upvote-count\">600</span>\n                </div>\n            </div>\n            <div class=\"column\">\n                <img src=imgs/img-3.png class=\"img\" style=\"filter: blur(28px)\">\n                <div class=\"upvote\">\n                    <span class=\"upvote-count\">1756</span>\n                </div>\n            </div>\n        </div>\n    </div> \n    <br>\n    <p>Which one do you want to reveal?</p>","response":"arrowright","phase":"test","task":"choose","left_img":19,"left_upvote":600,"left_blur":21,"right_img":3,"right_upvote":1756,"right_blur":28,"check":true,"trial_type":"html-keyboard-response","trial_index":45,"time_elapsed":148895,"internal_node_id":"0.0-7.0-1.10","subject_id":"602adfcb43d65719cc7f9470","study_id":"6437092920136b88d7967a4f","session_id":"64388b0c990c39ddcc3f6673"},{"rt":951,"stimulus":"<div class=\"container\">\n        <div class=\"img-container\">\n            <div class=\"column\">\n                <img src=imgs/img-19.png class=\"img\" style=\"filter: blur(21px)\">\n                <div class=\"upvote\">\n                    <span class=\"upvote-count\">600</span>\n                </div>\n            </div>\n            <div class=\"column\">\n                <img src=imgs/img-3.png class=\"img\">\n                <div class=\"upvote\">\n                    <span class=\"upvote-count\">1756</span>\n                </div>\n            </div>\n        </div>\n    </div>   \n    <br>\n    <p>Press any key to continue.</p>","response":" ","phase":"test","task":"reveal","trial_type":"html-keyboard-response","trial_index":46,"time_elapsed":149847,"internal_node_id":"0.0-7.0-2.10","subject_id":"602adfcb43d65719cc7f9470","study_id":"6437092920136b88d7967a4f","session_id":"64388b0c990c39ddcc3f6673"},{"rt":null,"stimulus":"\n          <p>Trial 12 of 21</p>\n        ","response":null,"phase":"test","trial_type":"html-keyboard-response","trial_index":47,"time_elapsed":150852,"internal_node_id":"0.0-7.0-0.11","subject_id":"602adfcb43d65719cc7f9470","study_id":"6437092920136b88d7967a4f","session_id":"64388b0c990c39ddcc3f6673"},{"rt":1575,"stimulus":"<div class=\"container\">\n        <div class=\"img-container\">\n            <div class=\"column\">\n                <img src=imgs/img-13.png class=\"img\" style=\"filter: blur(6px)\">\n                <div class=\"upvote\">\n                    <span class=\"upvote-count\">1416</span>\n                </div>\n            </div>\n            <div class=\"column\">\n                <img src=imgs/img-2.png class=\"img\" style=\"filter: blur(22px)\">\n                <div class=\"upvote\">\n                    <span class=\"upvote-count\">1809</span>\n                </div>\n            </div>\n        </div>\n    </div> \n    <br>\n    <p>Which one do you want to reveal?</p>","response":"arrowright","phase":"test","task":"choose","left_img":13,"left_upvote":1416,"left_blur":6,"right_img":1,"right_upvote":1809,"right_blur":22,"check":true,"trial_type":"html-keyboard-response","trial_index":48,"time_elapsed":152428,"internal_node_id":"0.0-7.0-1.11","subject_id":"602adfcb43d65719cc7f9470","study_id":"6437092920136b88d7967a4f","session_id":"64388b0c990c39ddcc3f6673"},{"rt":2485,"stimulus":"<div class=\"container\">\n        <div class=\"img-container\">\n            <div class=\"column\">\n                <img src=imgs/img-13.png class=\"img\" style=\"filter: blur(6px)\">\n                <div class=\"upvote\">\n                    <span class=\"upvote-count\">1416</span>\n                </div>\n            </div>\n            <div class=\"column\">\n                <img src=imgs/img-2.png class=\"img\">\n                <div class=\"upvote\">\n                    <span class=\"upvote-count\">1809</span>\n                </div>\n            </div>\n        </div>\n    </div>   \n    <br>\n    <p>Press any key to continue.</p>","response":" ","phase":"test","task":"reveal","trial_type":"html-keyboard-response","trial_index":49,"time_elapsed":154914,"internal_node_id":"0.0-7.0-2.11","subject_id":"602adfcb43d65719cc7f9470","study_id":"6437092920136b88d7967a4f","session_id":"64388b0c990c39ddcc3f6673"},{"rt":null,"stimulus":"\n          <p>Trial 13 of 21</p>\n        ","response":null,"phase":"test","trial_type":"html-keyboard-response","trial_index":50,"time_elapsed":155924,"internal_node_id":"0.0-7.0-0.12","subject_id":"602adfcb43d65719cc7f9470","study_id":"6437092920136b88d7967a4f","session_id":"64388b0c990c39ddcc3f6673"},{"rt":1268,"stimulus":"<div class=\"container\">\n        <div class=\"img-container\">\n            <div class=\"column\">\n                <img src=imgs/img-18.png class=\"img\" style=\"filter: blur(6px)\">\n                <div class=\"upvote\">\n                    <span class=\"upvote-count\">743</span>\n                </div>\n            </div>\n            <div class=\"column\">\n                <img src=imgs/img-35.png class=\"img\" style=\"filter: blur(6px)\">\n                <div class=\"upvote\">\n                    <span class=\"upvote-count\">114</span>\n                </div>\n            </div>\n        </div>\n    </div> \n    <br>\n    <p>Which one do you want to reveal?</p>","response":"arrowleft","phase":"test","task":"choose","left_img":18,"left_upvote":743,"left_blur":6,"right_img":35,"right_upvote":114,"right_blur":6,"check":true,"trial_type":"html-keyboard-response","trial_index":51,"time_elapsed":157194,"internal_node_id":"0.0-7.0-1.12","subject_id":"602adfcb43d65719cc7f9470","study_id":"6437092920136b88d7967a4f","session_id":"64388b0c990c39ddcc3f6673"},{"rt":2238,"stimulus":"<div class=\"container\">\n        <div class=\"img-container\">\n            <div class=\"column\">\n                <img src=imgs/img-18.png class=\"img\">\n                <div class=\"upvote\">\n                    <span class=\"upvote-count\">743</span>\n                </div>\n            </div>\n            <div class=\"column\">\n                <img src=imgs/img-35.png class=\"img\" style=\"filter: blur(6px)\">\n                <div class=\"upvote\">\n                    <span class=\"upvote-count\">114</span>\n                </div>\n            </div>\n        </div>\n    </div> \n    <br>\n    <p>Press any key to continue.</p>","response":" ","phase":"test","task":"reveal","trial_type":"html-keyboard-response","trial_index":52,"time_elapsed":159433,"internal_node_id":"0.0-7.0-2.12","subject_id":"602adfcb43d65719cc7f9470","study_id":"6437092920136b88d7967a4f","session_id":"64388b0c990c39ddcc3f6673"},{"rt":null,"stimulus":"\n          <p>Trial 14 of 21</p>\n        ","response":null,"phase":"test","trial_type":"html-keyboard-response","trial_index":53,"time_elapsed":160437,"internal_node_id":"0.0-7.0-0.13","subject_id":"602adfcb43d65719cc7f9470","study_id":"6437092920136b88d7967a4f","session_id":"64388b0c990c39ddcc3f6673"},{"rt":1629,"stimulus":"<div class=\"container\">\n        <div class=\"img-container\">\n            <div class=\"column\">\n                <img src=imgs/img-31.png class=\"img\" style=\"filter: blur(31px)\">\n                <div class=\"upvote\">\n                    <span class=\"upvote-count\">241</span>\n                </div>\n            </div>\n            <div class=\"column\">\n                <img src=imgs/img-1.png class=\"img\" style=\"filter: blur(16px)\">\n                <div class=\"upvote\">\n                    <span class=\"upvote-count\">2059</span>\n                </div>\n            </div>\n        </div>\n    </div> \n    <br>\n    <p>Which one do you want to reveal?</p>","response":"arrowright","phase":"test","task":"choose","left_img":31,"left_upvote":241,"left_blur":31,"right_img":1,"right_upvote":2059,"right_blur":16,"check":true,"trial_type":"html-keyboard-response","trial_index":54,"time_elapsed":162068,"internal_node_id":"0.0-7.0-1.13","subject_id":"602adfcb43d65719cc7f9470","study_id":"6437092920136b88d7967a4f","session_id":"64388b0c990c39ddcc3f6673"},{"rt":4910,"stimulus":"<div class=\"container\">\n        <div class=\"img-container\">\n            <div class=\"column\">\n                <img src=imgs/img-31.png class=\"img\" style=\"filter: blur(31px)\">\n                <div class=\"upvote\">\n                    <span class=\"upvote-count\">241</span>\n                </div>\n            </div>\n            <div class=\"column\">\n                <img src=imgs/img-1.png class=\"img\">\n                <div class=\"upvote\">\n                    <span class=\"upvote-count\">2059</span>\n                </div>\n            </div>\n        </div>\n    </div>   \n    <br>\n    <p>Press any key to continue.</p>","response":" ","phase":"test","task":"reveal","trial_type":"html-keyboard-response","trial_index":55,"time_elapsed":166978,"internal_node_id":"0.0-7.0-2.13","subject_id":"602adfcb43d65719cc7f9470","study_id":"6437092920136b88d7967a4f","session_id":"64388b0c990c39ddcc3f6673"},{"rt":null,"stimulus":"\n          <p>Trial 15 of 21</p>\n        ","response":null,"phase":"test","trial_type":"html-keyboard-response","trial_index":56,"time_elapsed":167989,"internal_node_id":"0.0-7.0-0.14","subject_id":"602adfcb43d65719cc7f9470","study_id":"6437092920136b88d7967a4f","session_id":"64388b0c990c39ddcc3f6673"},{"rt":3479,"stimulus":"<div class=\"container\">\n        <div class=\"img-container\">\n            <div class=\"column\">\n                <img src=imgs/img-32.png class=\"img\" style=\"filter: blur(24px)\">\n                <div class=\"upvote\">\n                    <span class=\"upvote-count\">171</span>\n                </div>\n            </div>\n            <div class=\"column\">\n                <img src=imgs/img-15.png class=\"img\" style=\"filter: blur(5px)\">\n                <div class=\"upvote\">\n                    <span class=\"upvote-count\">875</span>\n                </div>\n            </div>\n        </div>\n    </div> \n    <br>\n    <p>Which one do you want to reveal?</p>","response":"arrowleft","phase":"test","task":"choose","left_img":32,"left_upvote":171,"left_blur":24,"right_img":15,"right_upvote":875,"right_blur":5,"check":true,"trial_type":"html-keyboard-response","trial_index":57,"time_elapsed":171469,"internal_node_id":"0.0-7.0-1.14","subject_id":"602adfcb43d65719cc7f9470","study_id":"6437092920136b88d7967a4f","session_id":"64388b0c990c39ddcc3f6673"},{"rt":5705,"stimulus":"<div class=\"container\">\n        <div class=\"img-container\">\n            <div class=\"column\">\n                <img src=imgs/img-32.png class=\"img\">\n                <div class=\"upvote\">\n                    <span class=\"upvote-count\">171</span>\n                </div>\n            </div>\n            <div class=\"column\">\n                <img src=imgs/img-15.png class=\"img\" style=\"filter: blur(5px)\">\n                <div class=\"upvote\">\n                    <span class=\"upvote-count\">875</span>\n                </div>\n            </div>\n        </div>\n    </div> \n    <br>\n    <p>Press any key to continue.</p>","response":" ","phase":"test","task":"reveal","trial_type":"html-keyboard-response","trial_index":58,"time_elapsed":177175,"internal_node_id":"0.0-7.0-2.14","subject_id":"602adfcb43d65719cc7f9470","study_id":"6437092920136b88d7967a4f","session_id":"64388b0c990c39ddcc3f6673"},{"rt":null,"stimulus":"\n          <p>Trial 16 of 21</p>\n        ","response":null,"phase":"test","trial_type":"html-keyboard-response","trial_index":59,"time_elapsed":178183,"internal_node_id":"0.0-7.0-0.15","subject_id":"602adfcb43d65719cc7f9470","study_id":"6437092920136b88d7967a4f","session_id":"64388b0c990c39ddcc3f6673"},{"rt":3780,"stimulus":"<div class=\"container\">\n        <div class=\"img-container\">\n            <div class=\"column\">\n                <img src=imgs/img-28.png class=\"img\" style=\"filter: blur(5px)\">\n                <div class=\"upvote\">\n                    <span class=\"upvote-count\">312</span>\n                </div>\n            </div>\n            <div class=\"column\">\n                <img src=imgs/img-37.png class=\"img\" style=\"filter: blur(20px)\">\n                <div class=\"upvote\">\n                    <span class=\"upvote-count\">99</span>\n                </div>\n            </div>\n        </div>\n    </div> \n    <br>\n    <p>Which one do you want to reveal?</p>","response":"arrowright","phase":"test","task":"choose","left_img":28,"left_upvote":312,"left_blur":5,"right_img":37,"right_upvote":99,"right_blur":20,"check":true,"trial_type":"html-keyboard-response","trial_index":60,"time_elapsed":181964,"internal_node_id":"0.0-7.0-1.15","subject_id":"602adfcb43d65719cc7f9470","study_id":"6437092920136b88d7967a4f","session_id":"64388b0c990c39ddcc3f6673"},{"rt":4877,"stimulus":"<div class=\"container\">\n        <div class=\"img-container\">\n            <div class=\"column\">\n                <img src=imgs/img-28.png class=\"img\" style=\"filter: blur(5px)\">\n                <div class=\"upvote\">\n                    <span class=\"upvote-count\">312</span>\n                </div>\n            </div>\n            <div class=\"column\">\n                <img src=imgs/img-37.png class=\"img\">\n                <div class=\"upvote\">\n                    <span class=\"upvote-count\">99</span>\n                </div>\n            </div>\n        </div>\n    </div>   \n    <br>\n    <p>Press any key to continue.</p>","response":" ","phase":"test","task":"reveal","trial_type":"html-keyboard-response","trial_index":61,"time_elapsed":186842,"internal_node_id":"0.0-7.0-2.15","subject_id":"602adfcb43d65719cc7f9470","study_id":"6437092920136b88d7967a4f","session_id":"64388b0c990c39ddcc3f6673"},{"rt":null,"stimulus":"\n          <p>Trial 17 of 21</p>\n        ","response":null,"phase":"test","trial_type":"html-keyboard-response","trial_index":62,"time_elapsed":187855,"internal_node_id":"0.0-7.0-0.16","subject_id":"602adfcb43d65719cc7f9470","study_id":"6437092920136b88d7967a4f","session_id":"64388b0c990c39ddcc3f6673"},{"rt":2788,"stimulus":"<div class=\"container\">\n        <div class=\"img-container\">\n            <div class=\"column\">\n                <img src=imgs/img-11.png class=\"img\" style=\"filter: blur(5px)\">\n                <div class=\"upvote\">\n                    <span class=\"upvote-count\">3043</span>\n                </div>\n            </div>\n            <div class=\"column\">\n                <img src=imgs/img-42.png class=\"img\" style=\"filter: blur(16px)\">\n                <div class=\"upvote\">\n                    <span class=\"upvote-count\">763</span>\n                </div>\n            </div>\n        </div>\n    </div> \n    <br>\n    <p>Which one do you want to reveal?</p>","response":"arrowleft","phase":"test","task":"choose","left_img":11,"left_upvote":3043,"left_blur":5,"right_img":42,"right_upvote":763,"right_blur":16,"check":true,"trial_type":"html-keyboard-response","trial_index":63,"time_elapsed":190644,"internal_node_id":"0.0-7.0-1.16","subject_id":"602adfcb43d65719cc7f9470","study_id":"6437092920136b88d7967a4f","session_id":"64388b0c990c39ddcc3f6673"},{"rt":3295,"stimulus":"<div class=\"container\">\n        <div class=\"img-container\">\n            <div class=\"column\">\n                <img src=imgs/img-11.png class=\"img\">\n                <div class=\"upvote\">\n                    <span class=\"upvote-count\">3043</span>\n                </div>\n            </div>\n            <div class=\"column\">\n                <img src=imgs/img-42.png class=\"img\" style=\"filter: blur(16px)\">\n                <div class=\"upvote\">\n                    <span class=\"upvote-count\">763</span>\n                </div>\n            </div>\n        </div>\n    </div> \n    <br>\n    <p>Press any key to continue.</p>","response":" ","phase":"test","task":"reveal","trial_type":"html-keyboard-response","trial_index":64,"time_elapsed":193940,"internal_node_id":"0.0-7.0-2.16","subject_id":"602adfcb43d65719cc7f9470","study_id":"6437092920136b88d7967a4f","session_id":"64388b0c990c39ddcc3f6673"},{"rt":null,"stimulus":"\n          <p>Trial 18 of 21</p>\n        ","response":null,"phase":"test","trial_type":"html-keyboard-response","trial_index":65,"time_elapsed":194946,"internal_node_id":"0.0-7.0-0.17","subject_id":"602adfcb43d65719cc7f9470","study_id":"6437092920136b88d7967a4f","session_id":"64388b0c990c39ddcc3f6673"},{"rt":2310,"stimulus":"<div class=\"container\">\n        <div class=\"img-container\">\n            <div class=\"column\">\n                <img src=imgs/img-8.png class=\"img\" style=\"filter: blur(13px)\">\n                <div class=\"upvote\">\n                    <span class=\"upvote-count\">976</span>\n                </div>\n            </div>\n            <div class=\"column\">\n                <img src=imgs/img-36.png class=\"img\" style=\"filter: blur(20px)\">\n                <div class=\"upvote\">\n                    <span class=\"upvote-count\">105</span>\n                </div>\n            </div>\n        </div>\n    </div> \n    <br>\n    <p>Which one do you want to reveal?</p>","response":"arrowleft","phase":"test","task":"choose","left_img":8,"left_upvote":976,"left_blur":13,"right_img":36,"right_upvote":105,"right_blur":20,"check":true,"trial_type":"html-keyboard-response","trial_index":66,"time_elapsed":197258,"internal_node_id":"0.0-7.0-1.17","subject_id":"602adfcb43d65719cc7f9470","study_id":"6437092920136b88d7967a4f","session_id":"64388b0c990c39ddcc3f6673"},{"rt":1485,"stimulus":"<div class=\"container\">\n        <div class=\"img-container\">\n            <div class=\"column\">\n                <img src=imgs/img-8.png class=\"img\">\n                <div class=\"upvote\">\n                    <span class=\"upvote-count\">976</span>\n                </div>\n            </div>\n            <div class=\"column\">\n                <img src=imgs/img-36.png class=\"img\" style=\"filter: blur(20px)\">\n                <div class=\"upvote\">\n                    <span class=\"upvote-count\">105</span>\n                </div>\n            </div>\n        </div>\n    </div> \n    <br>\n    <p>Press any key to continue.</p>","response":" ","phase":"test","task":"reveal","trial_type":"html-keyboard-response","trial_index":67,"time_elapsed":198744,"internal_node_id":"0.0-7.0-2.17","subject_id":"602adfcb43d65719cc7f9470","study_id":"6437092920136b88d7967a4f","session_id":"64388b0c990c39ddcc3f6673"},{"rt":null,"stimulus":"\n          <p>Trial 19 of 21</p>\n        ","response":null,"phase":"test","trial_type":"html-keyboard-response","trial_index":68,"time_elapsed":199750,"internal_node_id":"0.0-7.0-0.18","subject_id":"602adfcb43d65719cc7f9470","study_id":"6437092920136b88d7967a4f","session_id":"64388b0c990c39ddcc3f6673"},{"rt":3825,"stimulus":"<div class=\"container\">\n        <div class=\"img-container\">\n            <div class=\"column\">\n                <img src=imgs/img-27.png class=\"img\" style=\"filter: blur(17px)\">\n                <div class=\"upvote\">\n                    <span class=\"upvote-count\">280</span>\n                </div>\n            </div>\n            <div class=\"column\">\n                <img src=imgs/img-17.png class=\"img\" style=\"filter: blur(20px)\">\n                <div class=\"upvote\">\n                    <span class=\"upvote-count\">836</span>\n                </div>\n            </div>\n        </div>\n    </div> \n    <br>\n    <p>Which one do you want to reveal?</p>","response":"arrowright","phase":"test","task":"choose","left_img":27,"left_upvote":280,"left_blur":17,"right_img":17,"right_upvote":836,"right_blur":20,"check":true,"trial_type":"html-keyboard-response","trial_index":69,"time_elapsed":203576,"internal_node_id":"0.0-7.0-1.18","subject_id":"602adfcb43d65719cc7f9470","study_id":"6437092920136b88d7967a4f","session_id":"64388b0c990c39ddcc3f6673"},{"rt":3380,"stimulus":"<div class=\"container\">\n        <div class=\"img-container\">\n            <div class=\"column\">\n                <img src=imgs/img-27.png class=\"img\" style=\"filter: blur(17px)\">\n                <div class=\"upvote\">\n                    <span class=\"upvote-count\">280</span>\n                </div>\n            </div>\n            <div class=\"column\">\n                <img src=imgs/img-17.png class=\"img\">\n                <div class=\"upvote\">\n                    <span class=\"upvote-count\">836</span>\n                </div>\n            </div>\n        </div>\n    </div>   \n    <br>\n    <p>Press any key to continue.</p>","response":" ","phase":"test","task":"reveal","trial_type":"html-keyboard-response","trial_index":70,"time_elapsed":206957,"internal_node_id":"0.0-7.0-2.18","subject_id":"602adfcb43d65719cc7f9470","study_id":"6437092920136b88d7967a4f","session_id":"64388b0c990c39ddcc3f6673"},{"rt":null,"stimulus":"\n          <p>Trial 20 of 21</p>\n        ","response":null,"phase":"test","trial_type":"html-keyboard-response","trial_index":71,"time_elapsed":207963,"internal_node_id":"0.0-7.0-0.19","subject_id":"602adfcb43d65719cc7f9470","study_id":"6437092920136b88d7967a4f","session_id":"64388b0c990c39ddcc3f6673"},{"rt":2470,"stimulus":"<div class=\"container\">\n        <div class=\"img-container\">\n            <div class=\"column\">\n                <img src=imgs/img-5.png class=\"img\" style=\"filter: blur(22px)\">\n                <div class=\"upvote\">\n                    <span class=\"upvote-count\">1302</span>\n                </div>\n            </div>\n            <div class=\"column\">\n                <img src=imgs/img-14.png class=\"img\" style=\"filter: blur(5px)\">\n                <div class=\"upvote\">\n                    <span class=\"upvote-count\">656</span>\n                </div>\n            </div>\n        </div>\n    </div> \n    <br>\n    <p>Which one do you want to reveal?</p>","response":"arrowleft","phase":"test","task":"choose","left_img":5,"left_upvote":1302,"left_blur":22,"right_img":14,"right_upvote":656,"right_blur":5,"check":true,"trial_type":"html-keyboard-response","trial_index":72,"time_elapsed":210434,"internal_node_id":"0.0-7.0-1.19","subject_id":"602adfcb43d65719cc7f9470","study_id":"6437092920136b88d7967a4f","session_id":"64388b0c990c39ddcc3f6673"},{"rt":3469,"stimulus":"<div class=\"container\">\n        <div class=\"img-container\">\n            <div class=\"column\">\n                <img src=imgs/img-5.png class=\"img\">\n                <div class=\"upvote\">\n                    <span class=\"upvote-count\">1302</span>\n                </div>\n            </div>\n            <div class=\"column\">\n                <img src=imgs/img-14.png class=\"img\" style=\"filter: blur(5px)\">\n                <div class=\"upvote\">\n                    <span class=\"upvote-count\">656</span>\n                </div>\n            </div>\n        </div>\n    </div> \n    <br>\n    <p>Press any key to continue.</p>","response":" ","phase":"test","task":"reveal","trial_type":"html-keyboard-response","trial_index":73,"time_elapsed":213904,"internal_node_id":"0.0-7.0-2.19","subject_id":"602adfcb43d65719cc7f9470","study_id":"6437092920136b88d7967a4f","session_id":"64388b0c990c39ddcc3f6673"},{"rt":null,"stimulus":"\n          <p>Trial 21 of 21</p>\n        ","response":null,"phase":"test","trial_type":"html-keyboard-response","trial_index":74,"time_elapsed":214909,"internal_node_id":"0.0-7.0-0.20","subject_id":"602adfcb43d65719cc7f9470","study_id":"6437092920136b88d7967a4f","session_id":"64388b0c990c39ddcc3f6673"},{"rt":2911,"stimulus":"<div class=\"container\">\n        <div class=\"img-container\">\n            <div class=\"column\">\n                <img src=imgs/img-34.png class=\"img\" style=\"filter: blur(13px)\">\n                <div class=\"upvote\">\n                    <span class=\"upvote-count\">124</span>\n                </div>\n            </div>\n            <div class=\"column\">\n                <img src=imgs/img-20.png class=\"img\" style=\"filter: blur(13px)\">\n                <div class=\"upvote\">\n                    <span class=\"upvote-count\">558</span>\n                </div>\n            </div>\n        </div>\n    </div> \n    <br>\n    <p>Which one do you want to reveal?</p>","response":"arrowright","phase":"test","task":"choose","left_img":34,"left_upvote":124,"left_blur":13,"right_img":20,"right_upvote":558,"right_blur":13,"check":true,"trial_type":"html-keyboard-response","trial_index":75,"time_elapsed":217821,"internal_node_id":"0.0-7.0-1.20","subject_id":"602adfcb43d65719cc7f9470","study_id":"6437092920136b88d7967a4f","session_id":"64388b0c990c39ddcc3f6673"},{"rt":4527,"stimulus":"<div class=\"container\">\n        <div class=\"img-container\">\n            <div class=\"column\">\n                <img src=imgs/img-34.png class=\"img\" style=\"filter: blur(13px)\">\n                <div class=\"upvote\">\n                    <span class=\"upvote-count\">124</span>\n                </div>\n            </div>\n            <div class=\"column\">\n                <img src=imgs/img-20.png class=\"img\">\n                <div class=\"upvote\">\n                    <span class=\"upvote-count\">558</span>\n                </div>\n            </div>\n        </div>\n    </div>   \n    <br>\n    <p>Press any key to continue.</p>","response":" ","phase":"test","task":"reveal","trial_type":"html-keyboard-response","trial_index":76,"time_elapsed":222349,"internal_node_id":"0.0-7.0-2.20","subject_id":"602adfcb43d65719cc7f9470","study_id":"6437092920136b88d7967a4f","session_id":"64388b0c990c39ddcc3f6673"}]