[{"success":true,"timeout":false,"failed_images":[],"failed_audio":[],"failed_video":[],"trial_type":"preload","trial_index":0,"time_elapsed":13102,"internal_node_id":"0.0-0.0","subject_id":"60fcbfcbcc916a19cbd01796","study_id":"6437092920136b88d7967a4f","session_id":"643887c02c021b30654b34fc"},{"rt":5756,"stimulus":"<p>Welcome to the experiment</p><br><p>Press any key to begin.</p>","response":" ","trial_type":"html-keyboard-response","trial_index":1,"time_elapsed":18860,"internal_node_id":"0.0-1.0","subject_id":"60fcbfcbcc916a19cbd01796","study_id":"6437092920136b88d7967a4f","session_id":"643887c02c021b30654b34fc"},{"rt":null,"stimulus":"\n        <p>In each trial, you will see two different images sourced from a popular social platform.</p>\n        <p>Each image will have an upvote count above it.</p>\n        <p>An upvote is a like given by users of the platform and helps promote quality content and discussion on the platform.</p>\n        <p>A higher upvote count means more people like the post and recommend it to other users.</p>\n        <br>\n        <p>Press any key to continue.</p>\n      ","response":null,"trial_type":"html-keyboard-response","trial_index":2,"time_elapsed":20863,"internal_node_id":"0.0-2.0-0.0","subject_id":"60fcbfcbcc916a19cbd01796","study_id":"6437092920136b88d7967a4f","session_id":"643887c02c021b30654b34fc"},{"rt":505,"stimulus":"\n        <p>In each trial, you will see two different images sourced from a popular social platform.</p>\n        <p>Each image will have an upvote count above it.</p>\n        <p>An upvote is a like given by users of the platform and helps promote quality content and discussion on the platform.</p>\n        <p>A higher upvote count means more people like the post and recommend it to other users.</p>\n        <br>\n        <p>Press any key to continue.</p>\n      ","response":" ","trial_type":"html-keyboard-response","trial_index":3,"time_elapsed":21369,"internal_node_id":"0.0-2.0-1.0","subject_id":"60fcbfcbcc916a19cbd01796","study_id":"6437092920136b88d7967a4f","session_id":"643887c02c021b30654b34fc"},{"rt":null,"stimulus":"\n        <p>At the start of every trial, both images will be blurred.</p>\n        <p>The image you select will unblur itself, and the other one will stay the same.</p>\n        <p>Please take some time to consider both images and their upvote counts. If you respond too fast, you will not see the image.</p>\n        <br>\n        <p>Press any key to continue.</p>\n      ","response":null,"trial_type":"html-keyboard-response","trial_index":4,"time_elapsed":23373,"internal_node_id":"0.0-2.0-2.0","subject_id":"60fcbfcbcc916a19cbd01796","study_id":"6437092920136b88d7967a4f","session_id":"643887c02c021b30654b34fc"},{"rt":3119,"stimulus":"\n        <p>At the start of every trial, both images will be blurred.</p>\n        <p>The image you select will unblur itself, and the other one will stay the same.</p>\n        <p>Please take some time to consider both images and their upvote counts. If you respond too fast, you will not see the image.</p>\n        <br>\n        <p>Press any key to continue.</p>\n      ","response":" ","trial_type":"html-keyboard-response","trial_index":5,"time_elapsed":26493,"internal_node_id":"0.0-2.0-3.0","subject_id":"60fcbfcbcc916a19cbd01796","study_id":"6437092920136b88d7967a4f","session_id":"643887c02c021b30654b34fc"},{"rt":null,"stimulus":"\n        <p>We will now go through 2 practice trials.</p>\n        <p>Press “←” on your keyboard to select the left image or “→” to select the right image.</p>\n        <br>\n        <p>On the next slide, you will see the images.</p>\n        <p>Press any key to continue.</p>\n      ","response":null,"trial_type":"html-keyboard-response","trial_index":6,"time_elapsed":28502,"internal_node_id":"0.0-2.0-4.0","subject_id":"60fcbfcbcc916a19cbd01796","study_id":"6437092920136b88d7967a4f","session_id":"643887c02c021b30654b34fc"},{"rt":1450,"stimulus":"\n        <p>We will now go through 2 practice trials.</p>\n        <p>Press “←” on your keyboard to select the left image or “→” to select the right image.</p>\n        <br>\n        <p>On the next slide, you will see the images.</p>\n        <p>Press any key to continue.</p>\n      ","response":" ","trial_type":"html-keyboard-response","trial_index":7,"time_elapsed":29953,"internal_node_id":"0.0-2.0-5.0","subject_id":"60fcbfcbcc916a19cbd01796","study_id":"6437092920136b88d7967a4f","session_id":"643887c02c021b30654b34fc"},{"rt":12072,"stimulus":"<div class=\"container\">\n        <div class=\"img-container\">\n            <div class=\"column\">\n                <img src=imgs/img-prac-1.jpg class=\"img\" style=\"filter: blur(40px)\">\n                <div class=\"upvote\">\n                    <span class=\"upvote-count\">78</span>\n                </div>\n            </div>\n            <div class=\"column\">\n                <img src=imgs/img-prac-2.png class=\"img\" style=\"filter: blur(20px)\">\n                <div class=\"upvote\">\n                    <span class=\"upvote-count\">898</span>\n                </div>\n            </div>\n        </div>\n    </div> \n    <br>\n    <p>Which one do you want to reveal?</p>","response":"arrowright","phase":"practice_1","task":"choose","left_upvote":78,"left_blur":40,"right_upvote":898,"right_blur":20,"check":true,"trial_type":"html-keyboard-response","trial_index":8,"time_elapsed":42029,"internal_node_id":"0.0-3.0-0.0","subject_id":"60fcbfcbcc916a19cbd01796","study_id":"6437092920136b88d7967a4f","session_id":"643887c02c021b30654b34fc"},{"rt":2614,"stimulus":"<div class=\"container\">\n        <div class=\"img-container\">\n            <div class=\"column\">\n                <img src=imgs/img-prac-1.jpg class=\"img\" style=\"filter: blur(40px)\">\n                <div class=\"upvote\">\n                    <span class=\"upvote-count\">78</span>\n                </div>\n            </div>\n            <div class=\"column\">\n                <img src=imgs/img-prac-2.png class=\"img\">\n                <div class=\"upvote\">\n                    <span class=\"upvote-count\">898</span>\n                </div>\n            </div>\n        </div>\n    </div>   \n    <br>\n    <p>Press any key to continue.</p>","response":"arrowleft","phase":"practice_1","task":"reveal","trial_type":"html-keyboard-response","trial_index":9,"time_elapsed":44645,"internal_node_id":"0.0-3.0-1.0","subject_id":"60fcbfcbcc916a19cbd01796","study_id":"6437092920136b88d7967a4f","session_id":"643887c02c021b30654b34fc"},{"rt":2803,"stimulus":"\n        <p>Great! Now try that with a different pair of images.</p>\n        <br>\n        <p>Press any key to continue.</p>\n      ","response":"arrowright","trial_type":"html-keyboard-response","trial_index":10,"time_elapsed":47449,"internal_node_id":"0.0-4.0-0.0","subject_id":"60fcbfcbcc916a19cbd01796","study_id":"6437092920136b88d7967a4f","session_id":"643887c02c021b30654b34fc"},{"rt":2814,"stimulus":"<div class=\"container\">\n        <div class=\"img-container\">\n            <div class=\"column\">\n                <img src=imgs/img-prac-3.png class=\"img\" style=\"filter: blur(10px)\">\n                <div class=\"upvote\">\n                    <span class=\"upvote-count\">1149</span>\n                </div>\n            </div>\n            <div class=\"column\">\n                <img src=imgs/img-prac-4.png class=\"img\" style=\"filter: blur(15px)\">\n                <div class=\"upvote\">\n                    <span class=\"upvote-count\">1529</span>\n                </div>\n            </div>\n        </div>\n    </div> \n    <br>\n    <p>Which one do you want to reveal?</p>","response":"arrowright","phase":"practice_2","task":"choose","left_upvote":1149,"left_blur":10,"right_upvote":1529,"right_blur":15,"check":true,"trial_type":"html-keyboard-response","trial_index":11,"time_elapsed":50266,"internal_node_id":"0.0-5.0-0.0","subject_id":"60fcbfcbcc916a19cbd01796","study_id":"6437092920136b88d7967a4f","session_id":"643887c02c021b30654b34fc"},{"rt":5046,"stimulus":"<div class=\"container\">\n        <div class=\"img-container\">\n            <div class=\"column\">\n                <img src=imgs/img-prac-3.png class=\"img\" style=\"filter: blur(10px)\">\n                <div class=\"upvote\">\n                    <span class=\"upvote-count\">1149</span>\n                </div>\n            </div>\n            <div class=\"column\">\n                <img src=imgs/img-prac-4.png class=\"img\">\n                <div class=\"upvote\">\n                    <span class=\"upvote-count\">1529</span>\n                </div>\n            </div>\n        </div>\n    </div>   \n    <br>\n    <p>Press any key to continue.</p>","response":"arrowleft","phase":"practice_2","task":"reveal","trial_type":"html-keyboard-response","trial_index":12,"time_elapsed":55313,"internal_node_id":"0.0-5.0-1.0","subject_id":"60fcbfcbcc916a19cbd01796","study_id":"6437092920136b88d7967a4f","session_id":"643887c02c021b30654b34fc"},{"rt":3457,"stimulus":"\n        <p>You have completed the tutorial!</p>\n        <p>The experiment will begin starting from the next slide.</p>\n        <p>There are 21 trials in the experiment.</p>\n        <br>\n        <p>Press any key to continue when you are ready.</p>\n      ","response":"arrowright","trial_type":"html-keyboard-response","trial_index":13,"time_elapsed":58771,"internal_node_id":"0.0-6.0","subject_id":"60fcbfcbcc916a19cbd01796","study_id":"6437092920136b88d7967a4f","session_id":"643887c02c021b30654b34fc"},{"rt":null,"stimulus":"\n          <p>Trial 1 of 21</p>\n        ","response":null,"phase":"test","trial_type":"html-keyboard-response","trial_index":14,"time_elapsed":59782,"internal_node_id":"0.0-7.0-0.0","subject_id":"60fcbfcbcc916a19cbd01796","study_id":"6437092920136b88d7967a4f","session_id":"643887c02c021b30654b34fc"},{"rt":2271,"stimulus":"<div class=\"container\">\n        <div class=\"img-container\">\n            <div class=\"column\">\n                <img src=imgs/img-19.png class=\"img\" style=\"filter: blur(11px)\">\n                <div class=\"upvote\">\n                    <span class=\"upvote-count\">600</span>\n                </div>\n            </div>\n            <div class=\"column\">\n                <img src=imgs/img-36.png class=\"img\" style=\"filter: blur(8px)\">\n                <div class=\"upvote\">\n                    <span class=\"upvote-count\">105</span>\n                </div>\n            </div>\n        </div>\n    </div> \n    <br>\n    <p>Which one do you want to reveal?</p>","response":"arrowright","phase":"test","task":"choose","left_img":19,"left_upvote":600,"left_blur":11,"right_img":36,"right_upvote":105,"right_blur":8,"check":true,"trial_type":"html-keyboard-response","trial_index":15,"time_elapsed":62055,"internal_node_id":"0.0-7.0-1.0","subject_id":"60fcbfcbcc916a19cbd01796","study_id":"6437092920136b88d7967a4f","session_id":"643887c02c021b30654b34fc"},{"rt":5320,"stimulus":"<div class=\"container\">\n        <div class=\"img-container\">\n            <div class=\"column\">\n                <img src=imgs/img-19.png class=\"img\" style=\"filter: blur(11px)\">\n                <div class=\"upvote\">\n                    <span class=\"upvote-count\">600</span>\n                </div>\n            </div>\n            <div class=\"column\">\n                <img src=imgs/img-36.png class=\"img\">\n                <div class=\"upvote\">\n                    <span class=\"upvote-count\">105</span>\n                </div>\n            </div>\n        </div>\n    </div>   \n    <br>\n    <p>Press any key to continue.</p>","response":"arrowleft","phase":"test","task":"reveal","trial_type":"html-keyboard-response","trial_index":16,"time_elapsed":67377,"internal_node_id":"0.0-7.0-2.0","subject_id":"60fcbfcbcc916a19cbd01796","study_id":"6437092920136b88d7967a4f","session_id":"643887c02c021b30654b34fc"},{"rt":null,"stimulus":"\n          <p>Trial 2 of 21</p>\n        ","response":null,"phase":"test","trial_type":"html-keyboard-response","trial_index":17,"time_elapsed":68383,"internal_node_id":"0.0-7.0-0.1","subject_id":"60fcbfcbcc916a19cbd01796","study_id":"6437092920136b88d7967a4f","session_id":"643887c02c021b30654b34fc"},{"rt":823,"stimulus":"<div class=\"container\">\n        <div class=\"img-container\">\n            <div class=\"column\">\n                <img src=imgs/img-11.png class=\"img\" style=\"filter: blur(27px)\">\n                <div class=\"upvote\">\n                    <span class=\"upvote-count\">3043</span>\n                </div>\n            </div>\n            <div class=\"column\">\n                <img src=imgs/img-3.png class=\"img\" style=\"filter: blur(5px)\">\n                <div class=\"upvote\">\n                    <span class=\"upvote-count\">1756</span>\n                </div>\n            </div>\n        </div>\n    </div> \n    <br>\n    <p>Which one do you want to reveal?</p>","response":"arrowright","phase":"test","task":"choose","left_img":11,"left_upvote":3043,"left_blur":27,"right_img":3,"right_upvote":1756,"right_blur":5,"check":true,"trial_type":"html-keyboard-response","trial_index":18,"time_elapsed":69208,"internal_node_id":"0.0-7.0-1.1","subject_id":"60fcbfcbcc916a19cbd01796","study_id":"6437092920136b88d7967a4f","session_id":"643887c02c021b30654b34fc"},{"rt":5534,"stimulus":"<div class=\"container\">\n        <div class=\"img-container\">\n            <div class=\"column\">\n                <img src=imgs/img-11.png class=\"img\" style=\"filter: blur(27px)\">\n                <div class=\"upvote\">\n                    <span class=\"upvote-count\">3043</span>\n                </div>\n            </div>\n            <div class=\"column\">\n                <img src=imgs/img-3.png class=\"img\">\n                <div class=\"upvote\">\n                    <span class=\"upvote-count\">1756</span>\n                </div>\n            </div>\n        </div>\n    </div>   \n    <br>\n    <p>Press any key to continue.</p>","response":"arrowright","phase":"test","task":"reveal","trial_type":"html-keyboard-response","trial_index":19,"time_elapsed":74745,"internal_node_id":"0.0-7.0-2.1","subject_id":"60fcbfcbcc916a19cbd01796","study_id":"6437092920136b88d7967a4f","session_id":"643887c02c021b30654b34fc"},{"rt":null,"stimulus":"\n          <p>Trial 3 of 21</p>\n        ","response":null,"phase":"test","trial_type":"html-keyboard-response","trial_index":20,"time_elapsed":75748,"internal_node_id":"0.0-7.0-0.2","subject_id":"60fcbfcbcc916a19cbd01796","study_id":"6437092920136b88d7967a4f","session_id":"643887c02c021b30654b34fc"},{"rt":32280,"stimulus":"<div class=\"container\">\n        <div class=\"img-container\">\n            <div class=\"column\">\n                <img src=imgs/img-41.png class=\"img\" style=\"filter: blur(23px)\">\n                <div class=\"upvote\">\n                    <span class=\"upvote-count\">64</span>\n                </div>\n            </div>\n            <div class=\"column\">\n                <img src=imgs/img-10.png class=\"img\" style=\"filter: blur(6px)\">\n                <div class=\"upvote\">\n                    <span class=\"upvote-count\">3817</span>\n                </div>\n            </div>\n        </div>\n    </div> \n    <br>\n    <p>Which one do you want to reveal?</p>","response":"arrowright","phase":"test","task":"choose","left_img":41,"left_upvote":64,"left_blur":23,"right_img":10,"right_upvote":3817,"right_blur":6,"check":true,"trial_type":"html-keyboard-response","trial_index":21,"time_elapsed":108030,"internal_node_id":"0.0-7.0-1.2","subject_id":"60fcbfcbcc916a19cbd01796","study_id":"6437092920136b88d7967a4f","session_id":"643887c02c021b30654b34fc"},{"rt":6412,"stimulus":"<div class=\"container\">\n        <div class=\"img-container\">\n            <div class=\"column\">\n                <img src=imgs/img-41.png class=\"img\" style=\"filter: blur(23px)\">\n                <div class=\"upvote\">\n                    <span class=\"upvote-count\">64</span>\n                </div>\n            </div>\n            <div class=\"column\">\n                <img src=imgs/img-10.png class=\"img\">\n                <div class=\"upvote\">\n                    <span class=\"upvote-count\">3817</span>\n                </div>\n            </div>\n        </div>\n    </div>   \n    <br>\n    <p>Press any key to continue.</p>","response":"arrowright","phase":"test","task":"reveal","trial_type":"html-keyboard-response","trial_index":22,"time_elapsed":114444,"internal_node_id":"0.0-7.0-2.2","subject_id":"60fcbfcbcc916a19cbd01796","study_id":"6437092920136b88d7967a4f","session_id":"643887c02c021b30654b34fc"},{"rt":null,"stimulus":"\n          <p>Trial 4 of 21</p>\n        ","response":null,"phase":"test","trial_type":"html-keyboard-response","trial_index":23,"time_elapsed":115449,"internal_node_id":"0.0-7.0-0.3","subject_id":"60fcbfcbcc916a19cbd01796","study_id":"6437092920136b88d7967a4f","session_id":"643887c02c021b30654b34fc"},{"rt":8104,"stimulus":"<div class=\"container\">\n        <div class=\"img-container\">\n            <div class=\"column\">\n                <img src=imgs/img-33.png class=\"img\" style=\"filter: blur(34px)\">\n                <div class=\"upvote\">\n                    <span class=\"upvote-count\">134</span>\n                </div>\n            </div>\n            <div class=\"column\">\n                <img src=imgs/img-15.png class=\"img\" style=\"filter: blur(9px)\">\n                <div class=\"upvote\">\n                    <span class=\"upvote-count\">875</span>\n                </div>\n            </div>\n        </div>\n    </div> \n    <br>\n    <p>Which one do you want to reveal?</p>","response":"arrowright","phase":"test","task":"choose","left_img":33,"left_upvote":134,"left_blur":34,"right_img":15,"right_upvote":875,"right_blur":9,"check":true,"trial_type":"html-keyboard-response","trial_index":24,"time_elapsed":123552,"internal_node_id":"0.0-7.0-1.3","subject_id":"60fcbfcbcc916a19cbd01796","study_id":"6437092920136b88d7967a4f","session_id":"643887c02c021b30654b34fc"},{"rt":8834,"stimulus":"<div class=\"container\">\n        <div class=\"img-container\">\n            <div class=\"column\">\n                <img src=imgs/img-33.png class=\"img\" style=\"filter: blur(34px)\">\n                <div class=\"upvote\">\n                    <span class=\"upvote-count\">134</span>\n                </div>\n            </div>\n            <div class=\"column\">\n                <img src=imgs/img-15.png class=\"img\">\n                <div class=\"upvote\">\n                    <span class=\"upvote-count\">875</span>\n                </div>\n            </div>\n        </div>\n    </div>   \n    <br>\n    <p>Press any key to continue.</p>","response":"arrowright","phase":"test","task":"reveal","trial_type":"html-keyboard-response","trial_index":25,"time_elapsed":132387,"internal_node_id":"0.0-7.0-2.3","subject_id":"60fcbfcbcc916a19cbd01796","study_id":"6437092920136b88d7967a4f","session_id":"643887c02c021b30654b34fc"},{"rt":null,"stimulus":"\n          <p>Trial 5 of 21</p>\n        ","response":null,"phase":"test","trial_type":"html-keyboard-response","trial_index":26,"time_elapsed":133403,"internal_node_id":"0.0-7.0-0.4","subject_id":"60fcbfcbcc916a19cbd01796","study_id":"6437092920136b88d7967a4f","session_id":"643887c02c021b30654b34fc"},{"rt":11698,"stimulus":"<div class=\"container\">\n        <div class=\"img-container\">\n            <div class=\"column\">\n                <img src=imgs/img-22.png class=\"img\" style=\"filter: blur(44px)\">\n                <div class=\"upvote\">\n                    <span class=\"upvote-count\">499</span>\n                </div>\n            </div>\n            <div class=\"column\">\n                <img src=imgs/img-24.png class=\"img\" style=\"filter: blur(21px)\">\n                <div class=\"upvote\">\n                    <span class=\"upvote-count\">682</span>\n                </div>\n            </div>\n        </div>\n    </div> \n    <br>\n    <p>Which one do you want to reveal?</p>","response":"arrowright","phase":"test","task":"choose","left_img":22,"left_upvote":499,"left_blur":44,"right_img":24,"right_upvote":682,"right_blur":21,"check":true,"trial_type":"html-keyboard-response","trial_index":27,"time_elapsed":145102,"internal_node_id":"0.0-7.0-1.4","subject_id":"60fcbfcbcc916a19cbd01796","study_id":"6437092920136b88d7967a4f","session_id":"643887c02c021b30654b34fc"},{"rt":18651,"stimulus":"<div class=\"container\">\n        <div class=\"img-container\">\n            <div class=\"column\">\n                <img src=imgs/img-22.png class=\"img\" style=\"filter: blur(44px)\">\n                <div class=\"upvote\">\n                    <span class=\"upvote-count\">499</span>\n                </div>\n            </div>\n            <div class=\"column\">\n                <img src=imgs/img-24.png class=\"img\">\n                <div class=\"upvote\">\n                    <span class=\"upvote-count\">682</span>\n                </div>\n            </div>\n        </div>\n    </div>   \n    <br>\n    <p>Press any key to continue.</p>","response":"arrowright","phase":"test","task":"reveal","trial_type":"html-keyboard-response","trial_index":28,"time_elapsed":163755,"internal_node_id":"0.0-7.0-2.4","subject_id":"60fcbfcbcc916a19cbd01796","study_id":"6437092920136b88d7967a4f","session_id":"643887c02c021b30654b34fc"},{"rt":null,"stimulus":"\n          <p>Trial 6 of 21</p>\n        ","response":null,"phase":"test","trial_type":"html-keyboard-response","trial_index":29,"time_elapsed":164763,"internal_node_id":"0.0-7.0-0.5","subject_id":"60fcbfcbcc916a19cbd01796","study_id":"6437092920136b88d7967a4f","session_id":"643887c02c021b30654b34fc"},{"rt":15214,"stimulus":"<div class=\"container\">\n        <div class=\"img-container\">\n            <div class=\"column\">\n                <img src=imgs/img-2.png class=\"img\" style=\"filter: blur(23px)\">\n                <div class=\"upvote\">\n                    <span class=\"upvote-count\">1809</span>\n                </div>\n            </div>\n            <div class=\"column\">\n                <img src=imgs/img-6.png class=\"img\" style=\"filter: blur(13px)\">\n                <div class=\"upvote\">\n                    <span class=\"upvote-count\">1072</span>\n                </div>\n            </div>\n        </div>\n    </div> \n    <br>\n    <p>Which one do you want to reveal?</p>","response":"arrowleft","phase":"test","task":"choose","left_img":1,"left_upvote":1809,"left_blur":23,"right_img":6,"right_upvote":1072,"right_blur":13,"check":true,"trial_type":"html-keyboard-response","trial_index":30,"time_elapsed":179978,"internal_node_id":"0.0-7.0-1.5","subject_id":"60fcbfcbcc916a19cbd01796","study_id":"6437092920136b88d7967a4f","session_id":"643887c02c021b30654b34fc"},{"rt":2585,"stimulus":"<div class=\"container\">\n        <div class=\"img-container\">\n            <div class=\"column\">\n                <img src=imgs/img-2.png class=\"img\">\n                <div class=\"upvote\">\n                    <span class=\"upvote-count\">1809</span>\n                </div>\n            </div>\n            <div class=\"column\">\n                <img src=imgs/img-6.png class=\"img\" style=\"filter: blur(13px)\">\n                <div class=\"upvote\">\n                    <span class=\"upvote-count\">1072</span>\n                </div>\n            </div>\n        </div>\n    </div> \n    <br>\n    <p>Press any key to continue.</p>","response":"arrowleft","phase":"test","task":"reveal","trial_type":"html-keyboard-response","trial_index":31,"time_elapsed":182564,"internal_node_id":"0.0-7.0-2.5","subject_id":"60fcbfcbcc916a19cbd01796","study_id":"6437092920136b88d7967a4f","session_id":"643887c02c021b30654b34fc"},{"rt":null,"stimulus":"\n          <p>Trial 7 of 21</p>\n        ","response":null,"phase":"test","trial_type":"html-keyboard-response","trial_index":32,"time_elapsed":183584,"internal_node_id":"0.0-7.0-0.6","subject_id":"60fcbfcbcc916a19cbd01796","study_id":"6437092920136b88d7967a4f","session_id":"643887c02c021b30654b34fc"},{"rt":1149,"stimulus":"<div class=\"container\">\n        <div class=\"img-container\">\n            <div class=\"column\">\n                <img src=imgs/img-14.png class=\"img\" style=\"filter: blur(10px)\">\n                <div class=\"upvote\">\n                    <span class=\"upvote-count\">656</span>\n                </div>\n            </div>\n            <div class=\"column\">\n                <img src=imgs/img-1.png class=\"img\" style=\"filter: blur(20px)\">\n                <div class=\"upvote\">\n                    <span class=\"upvote-count\">2059</span>\n                </div>\n            </div>\n        </div>\n    </div> \n    <br>\n    <p>Which one do you want to reveal?</p>","response":"arrowright","phase":"test","task":"choose","left_img":14,"left_upvote":656,"left_blur":10,"right_img":1,"right_upvote":2059,"right_blur":20,"check":true,"trial_type":"html-keyboard-response","trial_index":33,"time_elapsed":184735,"internal_node_id":"0.0-7.0-1.6","subject_id":"60fcbfcbcc916a19cbd01796","study_id":"6437092920136b88d7967a4f","session_id":"643887c02c021b30654b34fc"},{"rt":5601,"stimulus":"<div class=\"container\">\n        <div class=\"img-container\">\n            <div class=\"column\">\n                <img src=imgs/img-14.png class=\"img\" style=\"filter: blur(10px)\">\n                <div class=\"upvote\">\n                    <span class=\"upvote-count\">656</span>\n                </div>\n            </div>\n            <div class=\"column\">\n                <img src=imgs/img-1.png class=\"img\">\n                <div class=\"upvote\">\n                    <span class=\"upvote-count\">2059</span>\n                </div>\n            </div>\n        </div>\n    </div>   \n    <br>\n    <p>Press any key to continue.</p>","response":"arrowright","phase":"test","task":"reveal","trial_type":"html-keyboard-response","trial_index":34,"time_elapsed":190337,"internal_node_id":"0.0-7.0-2.6","subject_id":"60fcbfcbcc916a19cbd01796","study_id":"6437092920136b88d7967a4f","session_id":"643887c02c021b30654b34fc"},{"rt":null,"stimulus":"\n          <p>Trial 8 of 21</p>\n        ","response":null,"phase":"test","trial_type":"html-keyboard-response","trial_index":35,"time_elapsed":191353,"internal_node_id":"0.0-7.0-0.7","subject_id":"60fcbfcbcc916a19cbd01796","study_id":"6437092920136b88d7967a4f","session_id":"643887c02c021b30654b34fc"},{"rt":1566,"stimulus":"<div class=\"container\">\n        <div class=\"img-container\">\n            <div class=\"column\">\n                <img src=imgs/img-4.png class=\"img\" style=\"filter: blur(25px)\">\n                <div class=\"upvote\">\n                    <span class=\"upvote-count\">1617</span>\n                </div>\n            </div>\n            <div class=\"column\">\n                <img src=imgs/img-32.png class=\"img\" style=\"filter: blur(45px)\">\n                <div class=\"upvote\">\n                    <span class=\"upvote-count\">171</span>\n                </div>\n            </div>\n        </div>\n    </div> \n    <br>\n    <p>Which one do you want to reveal?</p>","response":"arrowleft","phase":"test","task":"choose","left_img":4,"left_upvote":1617,"left_blur":25,"right_img":32,"right_upvote":171,"right_blur":45,"check":true,"trial_type":"html-keyboard-response","trial_index":36,"time_elapsed":192921,"internal_node_id":"0.0-7.0-1.7","subject_id":"60fcbfcbcc916a19cbd01796","study_id":"6437092920136b88d7967a4f","session_id":"643887c02c021b30654b34fc"},{"rt":1116,"stimulus":"<div class=\"container\">\n        <div class=\"img-container\">\n            <div class=\"column\">\n                <img src=imgs/img-4.png class=\"img\">\n                <div class=\"upvote\">\n                    <span class=\"upvote-count\">1617</span>\n                </div>\n            </div>\n            <div class=\"column\">\n                <img src=imgs/img-32.png class=\"img\" style=\"filter: blur(45px)\">\n                <div class=\"upvote\">\n                    <span class=\"upvote-count\">171</span>\n                </div>\n            </div>\n        </div>\n    </div> \n    <br>\n    <p>Press any key to continue.</p>","response":"arrowleft","phase":"test","task":"reveal","trial_type":"html-keyboard-response","trial_index":37,"time_elapsed":194038,"internal_node_id":"0.0-7.0-2.7","subject_id":"60fcbfcbcc916a19cbd01796","study_id":"6437092920136b88d7967a4f","session_id":"643887c02c021b30654b34fc"},{"rt":null,"stimulus":"\n          <p>Trial 9 of 21</p>\n        ","response":null,"phase":"test","trial_type":"html-keyboard-response","trial_index":38,"time_elapsed":195051,"internal_node_id":"0.0-7.0-0.8","subject_id":"60fcbfcbcc916a19cbd01796","study_id":"6437092920136b88d7967a4f","session_id":"643887c02c021b30654b34fc"},{"rt":1494,"stimulus":"<div class=\"container\">\n        <div class=\"img-container\">\n            <div class=\"column\">\n                <img src=imgs/img-35.png class=\"img\" style=\"filter: blur(21px)\">\n                <div class=\"upvote\">\n                    <span class=\"upvote-count\">114</span>\n                </div>\n            </div>\n            <div class=\"column\">\n                <img src=imgs/img-42.png class=\"img\" style=\"filter: blur(41px)\">\n                <div class=\"upvote\">\n                    <span class=\"upvote-count\">763</span>\n                </div>\n            </div>\n        </div>\n    </div> \n    <br>\n    <p>Which one do you want to reveal?</p>","response":"arrowright","phase":"test","task":"choose","left_img":35,"left_upvote":114,"left_blur":21,"right_img":42,"right_upvote":763,"right_blur":41,"check":true,"trial_type":"html-keyboard-response","trial_index":39,"time_elapsed":196546,"internal_node_id":"0.0-7.0-1.8","subject_id":"60fcbfcbcc916a19cbd01796","study_id":"6437092920136b88d7967a4f","session_id":"643887c02c021b30654b34fc"},{"rt":686,"stimulus":"<div class=\"container\">\n        <div class=\"img-container\">\n            <div class=\"column\">\n                <img src=imgs/img-35.png class=\"img\" style=\"filter: blur(21px)\">\n                <div class=\"upvote\">\n                    <span class=\"upvote-count\">114</span>\n                </div>\n            </div>\n            <div class=\"column\">\n                <img src=imgs/img-42.png class=\"img\">\n                <div class=\"upvote\">\n                    <span class=\"upvote-count\">763</span>\n                </div>\n            </div>\n        </div>\n    </div>   \n    <br>\n    <p>Press any key to continue.</p>","response":"arrowright","phase":"test","task":"reveal","trial_type":"html-keyboard-response","trial_index":40,"time_elapsed":197234,"internal_node_id":"0.0-7.0-2.8","subject_id":"60fcbfcbcc916a19cbd01796","study_id":"6437092920136b88d7967a4f","session_id":"643887c02c021b30654b34fc"},{"rt":null,"stimulus":"\n          <p>Trial 10 of 21</p>\n        ","response":null,"phase":"test","trial_type":"html-keyboard-response","trial_index":41,"time_elapsed":198249,"internal_node_id":"0.0-7.0-0.9","subject_id":"60fcbfcbcc916a19cbd01796","study_id":"6437092920136b88d7967a4f","session_id":"643887c02c021b30654b34fc"},{"rt":3554,"stimulus":"<div class=\"container\">\n        <div class=\"img-container\">\n            <div class=\"column\">\n                <img src=imgs/img-40.png class=\"img\" style=\"filter: blur(24px)\">\n                <div class=\"upvote\">\n                    <span class=\"upvote-count\">46</span>\n                </div>\n            </div>\n            <div class=\"column\">\n                <img src=imgs/img-12.png class=\"img\" style=\"filter: blur(24px)\">\n                <div class=\"upvote\">\n                    <span class=\"upvote-count\">1676</span>\n                </div>\n            </div>\n        </div>\n    </div> \n    <br>\n    <p>Which one do you want to reveal?</p>","response":"arrowright","phase":"test","task":"choose","left_img":40,"left_upvote":46,"left_blur":24,"right_img":12,"right_upvote":1676,"right_blur":24,"check":true,"trial_type":"html-keyboard-response","trial_index":42,"time_elapsed":201804,"internal_node_id":"0.0-7.0-1.9","subject_id":"60fcbfcbcc916a19cbd01796","study_id":"6437092920136b88d7967a4f","session_id":"643887c02c021b30654b34fc"},{"rt":1010,"stimulus":"<div class=\"container\">\n        <div class=\"img-container\">\n            <div class=\"column\">\n                <img src=imgs/img-40.png class=\"img\" style=\"filter: blur(24px)\">\n                <div class=\"upvote\">\n                    <span class=\"upvote-count\">46</span>\n                </div>\n            </div>\n            <div class=\"column\">\n                <img src=imgs/img-12.png class=\"img\">\n                <div class=\"upvote\">\n                    <span class=\"upvote-count\">1676</span>\n                </div>\n            </div>\n        </div>\n    </div>   \n    <br>\n    <p>Press any key to continue.</p>","response":"arrowright","phase":"test","task":"reveal","trial_type":"html-keyboard-response","trial_index":43,"time_elapsed":202816,"internal_node_id":"0.0-7.0-2.9","subject_id":"60fcbfcbcc916a19cbd01796","study_id":"6437092920136b88d7967a4f","session_id":"643887c02c021b30654b34fc"},{"rt":null,"stimulus":"\n          <p>Trial 11 of 21</p>\n        ","response":null,"phase":"test","trial_type":"html-keyboard-response","trial_index":44,"time_elapsed":203832,"internal_node_id":"0.0-7.0-0.10","subject_id":"60fcbfcbcc916a19cbd01796","study_id":"6437092920136b88d7967a4f","session_id":"643887c02c021b30654b34fc"},{"rt":837,"stimulus":"<div class=\"container\">\n        <div class=\"img-container\">\n            <div class=\"column\">\n                <img src=imgs/img-38.png class=\"img\" style=\"filter: blur(23px)\">\n                <div class=\"upvote\">\n                    <span class=\"upvote-count\">24</span>\n                </div>\n            </div>\n            <div class=\"column\">\n                <img src=imgs/img-30.png class=\"img\" style=\"filter: blur(47px)\">\n                <div class=\"upvote\">\n                    <span class=\"upvote-count\">206</span>\n                </div>\n            </div>\n        </div>\n    </div> \n    <br>\n    <p>Which one do you want to reveal?</p>","response":"arrowright","phase":"test","task":"choose","left_img":38,"left_upvote":24,"left_blur":23,"right_img":30,"right_upvote":206,"right_blur":47,"check":true,"trial_type":"html-keyboard-response","trial_index":45,"time_elapsed":204671,"internal_node_id":"0.0-7.0-1.10","subject_id":"60fcbfcbcc916a19cbd01796","study_id":"6437092920136b88d7967a4f","session_id":"643887c02c021b30654b34fc"},{"rt":820,"stimulus":"<div class=\"container\">\n        <div class=\"img-container\">\n            <div class=\"column\">\n                <img src=imgs/img-38.png class=\"img\" style=\"filter: blur(23px)\">\n                <div class=\"upvote\">\n                    <span class=\"upvote-count\">24</span>\n                </div>\n            </div>\n            <div class=\"column\">\n                <img src=imgs/img-30.png class=\"img\">\n                <div class=\"upvote\">\n                    <span class=\"upvote-count\">206</span>\n                </div>\n            </div>\n        </div>\n    </div>   \n    <br>\n    <p>Press any key to continue.</p>","response":"arrowright","phase":"test","task":"reveal","trial_type":"html-keyboard-response","trial_index":46,"time_elapsed":205493,"internal_node_id":"0.0-7.0-2.10","subject_id":"60fcbfcbcc916a19cbd01796","study_id":"6437092920136b88d7967a4f","session_id":"643887c02c021b30654b34fc"},{"rt":null,"stimulus":"\n          <p>Trial 12 of 21</p>\n        ","response":null,"phase":"test","trial_type":"html-keyboard-response","trial_index":47,"time_elapsed":206499,"internal_node_id":"0.0-7.0-0.11","subject_id":"60fcbfcbcc916a19cbd01796","study_id":"6437092920136b88d7967a4f","session_id":"643887c02c021b30654b34fc"},{"rt":818,"stimulus":"<div class=\"container\">\n        <div class=\"img-container\">\n            <div class=\"column\">\n                <img src=imgs/img-34.png class=\"img\" style=\"filter: blur(38px)\">\n                <div class=\"upvote\">\n                    <span class=\"upvote-count\">124</span>\n                </div>\n            </div>\n            <div class=\"column\">\n                <img src=imgs/img-20.png class=\"img\" style=\"filter: blur(16px)\">\n                <div class=\"upvote\">\n                    <span class=\"upvote-count\">558</span>\n                </div>\n            </div>\n        </div>\n    </div> \n    <br>\n    <p>Which one do you want to reveal?</p>","response":"arrowright","phase":"test","task":"choose","left_img":34,"left_upvote":124,"left_blur":38,"right_img":20,"right_upvote":558,"right_blur":16,"check":true,"trial_type":"html-keyboard-response","trial_index":48,"time_elapsed":207319,"internal_node_id":"0.0-7.0-1.11","subject_id":"60fcbfcbcc916a19cbd01796","study_id":"6437092920136b88d7967a4f","session_id":"643887c02c021b30654b34fc"},{"rt":4455,"stimulus":"<div class=\"container\">\n        <div class=\"img-container\">\n            <div class=\"column\">\n                <img src=imgs/img-34.png class=\"img\" style=\"filter: blur(38px)\">\n                <div class=\"upvote\">\n                    <span class=\"upvote-count\">124</span>\n                </div>\n            </div>\n            <div class=\"column\">\n                <img src=imgs/img-20.png class=\"img\">\n                <div class=\"upvote\">\n                    <span class=\"upvote-count\">558</span>\n                </div>\n            </div>\n        </div>\n    </div>   \n    <br>\n    <p>Press any key to continue.</p>","response":"arrowright","phase":"test","task":"reveal","trial_type":"html-keyboard-response","trial_index":49,"time_elapsed":211776,"internal_node_id":"0.0-7.0-2.11","subject_id":"60fcbfcbcc916a19cbd01796","study_id":"6437092920136b88d7967a4f","session_id":"643887c02c021b30654b34fc"},{"rt":null,"stimulus":"\n          <p>Trial 13 of 21</p>\n        ","response":null,"phase":"test","trial_type":"html-keyboard-response","trial_index":50,"time_elapsed":212789,"internal_node_id":"0.0-7.0-0.12","subject_id":"60fcbfcbcc916a19cbd01796","study_id":"6437092920136b88d7967a4f","session_id":"643887c02c021b30654b34fc"},{"rt":998,"stimulus":"<div class=\"container\">\n        <div class=\"img-container\">\n            <div class=\"column\">\n                <img src=imgs/img-37.png class=\"img\" style=\"filter: blur(40px)\">\n                <div class=\"upvote\">\n                    <span class=\"upvote-count\">99</span>\n                </div>\n            </div>\n            <div class=\"column\">\n                <img src=imgs/img-28.png class=\"img\" style=\"filter: blur(16px)\">\n                <div class=\"upvote\">\n                    <span class=\"upvote-count\">312</span>\n                </div>\n            </div>\n        </div>\n    </div> \n    <br>\n    <p>Which one do you want to reveal?</p>","response":"arrowright","phase":"test","task":"choose","left_img":37,"left_upvote":99,"left_blur":40,"right_img":28,"right_upvote":312,"right_blur":16,"check":true,"trial_type":"html-keyboard-response","trial_index":51,"time_elapsed":213789,"internal_node_id":"0.0-7.0-1.12","subject_id":"60fcbfcbcc916a19cbd01796","study_id":"6437092920136b88d7967a4f","session_id":"643887c02c021b30654b34fc"},{"rt":4495,"stimulus":"<div class=\"container\">\n        <div class=\"img-container\">\n            <div class=\"column\">\n                <img src=imgs/img-37.png class=\"img\" style=\"filter: blur(40px)\">\n                <div class=\"upvote\">\n                    <span class=\"upvote-count\">99</span>\n                </div>\n            </div>\n            <div class=\"column\">\n                <img src=imgs/img-28.png class=\"img\">\n                <div class=\"upvote\">\n                    <span class=\"upvote-count\">312</span>\n                </div>\n            </div>\n        </div>\n    </div>   \n    <br>\n    <p>Press any key to continue.</p>","response":"arrowright","phase":"test","task":"reveal","trial_type":"html-keyboard-response","trial_index":52,"time_elapsed":218286,"internal_node_id":"0.0-7.0-2.12","subject_id":"60fcbfcbcc916a19cbd01796","study_id":"6437092920136b88d7967a4f","session_id":"643887c02c021b30654b34fc"},{"rt":null,"stimulus":"\n          <p>Trial 14 of 21</p>\n        ","response":null,"phase":"test","trial_type":"html-keyboard-response","trial_index":53,"time_elapsed":219289,"internal_node_id":"0.0-7.0-0.13","subject_id":"60fcbfcbcc916a19cbd01796","study_id":"6437092920136b88d7967a4f","session_id":"643887c02c021b30654b34fc"},{"rt":2387,"stimulus":"<div class=\"container\">\n        <div class=\"img-container\">\n            <div class=\"column\">\n                <img src=imgs/img-21.png class=\"img\" style=\"filter: blur(15px)\">\n                <div class=\"upvote\">\n                    <span class=\"upvote-count\">510</span>\n                </div>\n            </div>\n            <div class=\"column\">\n                <img src=imgs/img-18.png class=\"img\" style=\"filter: blur(27px)\">\n                <div class=\"upvote\">\n                    <span class=\"upvote-count\">743</span>\n                </div>\n            </div>\n        </div>\n    </div> \n    <br>\n    <p>Which one do you want to reveal?</p>","response":"arrowleft","phase":"test","task":"choose","left_img":21,"left_upvote":510,"left_blur":15,"right_img":18,"right_upvote":743,"right_blur":27,"check":true,"trial_type":"html-keyboard-response","trial_index":54,"time_elapsed":221677,"internal_node_id":"0.0-7.0-1.13","subject_id":"60fcbfcbcc916a19cbd01796","study_id":"6437092920136b88d7967a4f","session_id":"643887c02c021b30654b34fc"},{"rt":3898,"stimulus":"<div class=\"container\">\n        <div class=\"img-container\">\n            <div class=\"column\">\n                <img src=imgs/img-21.png class=\"img\">\n                <div class=\"upvote\">\n                    <span class=\"upvote-count\">510</span>\n                </div>\n            </div>\n            <div class=\"column\">\n                <img src=imgs/img-18.png class=\"img\" style=\"filter: blur(27px)\">\n                <div class=\"upvote\">\n                    <span class=\"upvote-count\">743</span>\n                </div>\n            </div>\n        </div>\n    </div> \n    <br>\n    <p>Press any key to continue.</p>","response":"arrowright","phase":"test","task":"reveal","trial_type":"html-keyboard-response","trial_index":55,"time_elapsed":225579,"internal_node_id":"0.0-7.0-2.13","subject_id":"60fcbfcbcc916a19cbd01796","study_id":"6437092920136b88d7967a4f","session_id":"643887c02c021b30654b34fc"},{"rt":null,"stimulus":"\n          <p>Trial 15 of 21</p>\n        ","response":null,"phase":"test","trial_type":"html-keyboard-response","trial_index":56,"time_elapsed":226585,"internal_node_id":"0.0-7.0-0.14","subject_id":"60fcbfcbcc916a19cbd01796","study_id":"6437092920136b88d7967a4f","session_id":"643887c02c021b30654b34fc"},{"rt":1706,"stimulus":"<div class=\"container\">\n        <div class=\"img-container\">\n            <div class=\"column\">\n                <img src=imgs/img-29.png class=\"img\" style=\"filter: blur(12px)\">\n                <div class=\"upvote\">\n                    <span class=\"upvote-count\">265</span>\n                </div>\n            </div>\n            <div class=\"column\">\n                <img src=imgs/img-23.png class=\"img\" style=\"filter: blur(6px)\">\n                <div class=\"upvote\">\n                    <span class=\"upvote-count\">394</span>\n                </div>\n            </div>\n        </div>\n    </div> \n    <br>\n    <p>Which one do you want to reveal?</p>","response":"arrowright","phase":"test","task":"choose","left_img":29,"left_upvote":265,"left_blur":12,"right_img":23,"right_upvote":394,"right_blur":6,"check":true,"trial_type":"html-keyboard-response","trial_index":57,"time_elapsed":228292,"internal_node_id":"0.0-7.0-1.14","subject_id":"60fcbfcbcc916a19cbd01796","study_id":"6437092920136b88d7967a4f","session_id":"643887c02c021b30654b34fc"},{"rt":14415,"stimulus":"<div class=\"container\">\n        <div class=\"img-container\">\n            <div class=\"column\">\n                <img src=imgs/img-29.png class=\"img\" style=\"filter: blur(12px)\">\n                <div class=\"upvote\">\n                    <span class=\"upvote-count\">265</span>\n                </div>\n            </div>\n            <div class=\"column\">\n                <img src=imgs/img-23.png class=\"img\">\n                <div class=\"upvote\">\n                    <span class=\"upvote-count\">394</span>\n                </div>\n            </div>\n        </div>\n    </div>   \n    <br>\n    <p>Press any key to continue.</p>","response":"arrowright","phase":"test","task":"reveal","trial_type":"html-keyboard-response","trial_index":58,"time_elapsed":242709,"internal_node_id":"0.0-7.0-2.14","subject_id":"60fcbfcbcc916a19cbd01796","study_id":"6437092920136b88d7967a4f","session_id":"643887c02c021b30654b34fc"},{"rt":null,"stimulus":"\n          <p>Trial 16 of 21</p>\n        ","response":null,"phase":"test","trial_type":"html-keyboard-response","trial_index":59,"time_elapsed":243714,"internal_node_id":"0.0-7.0-0.15","subject_id":"60fcbfcbcc916a19cbd01796","study_id":"6437092920136b88d7967a4f","session_id":"643887c02c021b30654b34fc"},{"rt":1692,"stimulus":"<div class=\"container\">\n        <div class=\"img-container\">\n            <div class=\"column\">\n                <img src=imgs/img-31.png class=\"img\" style=\"filter: blur(7px)\">\n                <div class=\"upvote\">\n                    <span class=\"upvote-count\">241</span>\n                </div>\n            </div>\n            <div class=\"column\">\n                <img src=imgs/img-16.png class=\"img\" style=\"filter: blur(20px)\">\n                <div class=\"upvote\">\n                    <span class=\"upvote-count\">845</span>\n                </div>\n            </div>\n        </div>\n    </div> \n    <br>\n    <p>Which one do you want to reveal?</p>","response":"arrowright","phase":"test","task":"choose","left_img":31,"left_upvote":241,"left_blur":7,"right_img":16,"right_upvote":845,"right_blur":20,"check":true,"trial_type":"html-keyboard-response","trial_index":60,"time_elapsed":245407,"internal_node_id":"0.0-7.0-1.15","subject_id":"60fcbfcbcc916a19cbd01796","study_id":"6437092920136b88d7967a4f","session_id":"643887c02c021b30654b34fc"},{"rt":15466,"stimulus":"<div class=\"container\">\n        <div class=\"img-container\">\n            <div class=\"column\">\n                <img src=imgs/img-31.png class=\"img\" style=\"filter: blur(7px)\">\n                <div class=\"upvote\">\n                    <span class=\"upvote-count\">241</span>\n                </div>\n            </div>\n            <div class=\"column\">\n                <img src=imgs/img-16.png class=\"img\">\n                <div class=\"upvote\">\n                    <span class=\"upvote-count\">845</span>\n                </div>\n            </div>\n        </div>\n    </div>   \n    <br>\n    <p>Press any key to continue.</p>","response":"arrowright","phase":"test","task":"reveal","trial_type":"html-keyboard-response","trial_index":61,"time_elapsed":260874,"internal_node_id":"0.0-7.0-2.15","subject_id":"60fcbfcbcc916a19cbd01796","study_id":"6437092920136b88d7967a4f","session_id":"643887c02c021b30654b34fc"},{"rt":null,"stimulus":"\n          <p>Trial 17 of 21</p>\n        ","response":null,"phase":"test","trial_type":"html-keyboard-response","trial_index":62,"time_elapsed":261891,"internal_node_id":"0.0-7.0-0.16","subject_id":"60fcbfcbcc916a19cbd01796","study_id":"6437092920136b88d7967a4f","session_id":"643887c02c021b30654b34fc"},{"rt":1647,"stimulus":"<div class=\"container\">\n        <div class=\"img-container\">\n            <div class=\"column\">\n                <img src=imgs/img-27.png class=\"img\" style=\"filter: blur(16px)\">\n                <div class=\"upvote\">\n                    <span class=\"upvote-count\">280</span>\n                </div>\n            </div>\n            <div class=\"column\">\n                <img src=imgs/img-26.png class=\"img\" style=\"filter: blur(39px)\">\n                <div class=\"upvote\">\n                    <span class=\"upvote-count\">355</span>\n                </div>\n            </div>\n        </div>\n    </div> \n    <br>\n    <p>Which one do you want to reveal?</p>","response":"arrowright","phase":"test","task":"choose","left_img":27,"left_upvote":280,"left_blur":16,"right_img":26,"right_upvote":355,"right_blur":39,"check":true,"trial_type":"html-keyboard-response","trial_index":63,"time_elapsed":263540,"internal_node_id":"0.0-7.0-1.16","subject_id":"60fcbfcbcc916a19cbd01796","study_id":"6437092920136b88d7967a4f","session_id":"643887c02c021b30654b34fc"},{"rt":10414,"stimulus":"<div class=\"container\">\n        <div class=\"img-container\">\n            <div class=\"column\">\n                <img src=imgs/img-27.png class=\"img\" style=\"filter: blur(16px)\">\n                <div class=\"upvote\">\n                    <span class=\"upvote-count\">280</span>\n                </div>\n            </div>\n            <div class=\"column\">\n                <img src=imgs/img-26.png class=\"img\">\n                <div class=\"upvote\">\n                    <span class=\"upvote-count\">355</span>\n                </div>\n            </div>\n        </div>\n    </div>   \n    <br>\n    <p>Press any key to continue.</p>","response":"arrowright","phase":"test","task":"reveal","trial_type":"html-keyboard-response","trial_index":64,"time_elapsed":273955,"internal_node_id":"0.0-7.0-2.16","subject_id":"60fcbfcbcc916a19cbd01796","study_id":"6437092920136b88d7967a4f","session_id":"643887c02c021b30654b34fc"},{"rt":null,"stimulus":"\n          <p>Trial 18 of 21</p>\n        ","response":null,"phase":"test","trial_type":"html-keyboard-response","trial_index":65,"time_elapsed":274958,"internal_node_id":"0.0-7.0-0.17","subject_id":"60fcbfcbcc916a19cbd01796","study_id":"6437092920136b88d7967a4f","session_id":"643887c02c021b30654b34fc"},{"rt":2976,"stimulus":"<div class=\"container\">\n        <div class=\"img-container\">\n            <div class=\"column\">\n                <img src=imgs/img-39.png class=\"img\" style=\"filter: blur(27px)\">\n                <div class=\"upvote\">\n                    <span class=\"upvote-count\">70</span>\n                </div>\n            </div>\n            <div class=\"column\">\n                <img src=imgs/img-5.png class=\"img\" style=\"filter: blur(24px)\">\n                <div class=\"upvote\">\n                    <span class=\"upvote-count\">1302</span>\n                </div>\n            </div>\n        </div>\n    </div> \n    <br>\n    <p>Which one do you want to reveal?</p>","response":"arrowright","phase":"test","task":"choose","left_img":39,"left_upvote":70,"left_blur":27,"right_img":5,"right_upvote":1302,"right_blur":24,"check":true,"trial_type":"html-keyboard-response","trial_index":66,"time_elapsed":277936,"internal_node_id":"0.0-7.0-1.17","subject_id":"60fcbfcbcc916a19cbd01796","study_id":"6437092920136b88d7967a4f","session_id":"643887c02c021b30654b34fc"},{"rt":4085,"stimulus":"<div class=\"container\">\n        <div class=\"img-container\">\n            <div class=\"column\">\n                <img src=imgs/img-39.png class=\"img\" style=\"filter: blur(27px)\">\n                <div class=\"upvote\">\n                    <span class=\"upvote-count\">70</span>\n                </div>\n            </div>\n            <div class=\"column\">\n                <img src=imgs/img-5.png class=\"img\">\n                <div class=\"upvote\">\n                    <span class=\"upvote-count\">1302</span>\n                </div>\n            </div>\n        </div>\n    </div>   \n    <br>\n    <p>Press any key to continue.</p>","response":"arrowright","phase":"test","task":"reveal","trial_type":"html-keyboard-response","trial_index":67,"time_elapsed":282023,"internal_node_id":"0.0-7.0-2.17","subject_id":"60fcbfcbcc916a19cbd01796","study_id":"6437092920136b88d7967a4f","session_id":"643887c02c021b30654b34fc"},{"rt":null,"stimulus":"\n          <p>Trial 19 of 21</p>\n        ","response":null,"phase":"test","trial_type":"html-keyboard-response","trial_index":68,"time_elapsed":283033,"internal_node_id":"0.0-7.0-0.18","subject_id":"60fcbfcbcc916a19cbd01796","study_id":"6437092920136b88d7967a4f","session_id":"643887c02c021b30654b34fc"},{"rt":2487,"stimulus":"<div class=\"container\">\n        <div class=\"img-container\">\n            <div class=\"column\">\n                <img src=imgs/img-13.png class=\"img\" style=\"filter: blur(22px)\">\n                <div class=\"upvote\">\n                    <span class=\"upvote-count\">1416</span>\n                </div>\n            </div>\n            <div class=\"column\">\n                <img src=imgs/img-8.png class=\"img\" style=\"filter: blur(32px)\">\n                <div class=\"upvote\">\n                    <span class=\"upvote-count\">976</span>\n                </div>\n            </div>\n        </div>\n    </div> \n    <br>\n    <p>Which one do you want to reveal?</p>","response":"arrowleft","phase":"test","task":"choose","left_img":13,"left_upvote":1416,"left_blur":22,"right_img":8,"right_upvote":976,"right_blur":32,"check":true,"trial_type":"html-keyboard-response","trial_index":69,"time_elapsed":285521,"internal_node_id":"0.0-7.0-1.18","subject_id":"60fcbfcbcc916a19cbd01796","study_id":"6437092920136b88d7967a4f","session_id":"643887c02c021b30654b34fc"},{"rt":16700,"stimulus":"<div class=\"container\">\n        <div class=\"img-container\">\n            <div class=\"column\">\n                <img src=imgs/img-13.png class=\"img\">\n                <div class=\"upvote\">\n                    <span class=\"upvote-count\">1416</span>\n                </div>\n            </div>\n            <div class=\"column\">\n                <img src=imgs/img-8.png class=\"img\" style=\"filter: blur(32px)\">\n                <div class=\"upvote\">\n                    <span class=\"upvote-count\">976</span>\n                </div>\n            </div>\n        </div>\n    </div> \n    <br>\n    <p>Press any key to continue.</p>","response":"arrowright","phase":"test","task":"reveal","trial_type":"html-keyboard-response","trial_index":70,"time_elapsed":302222,"internal_node_id":"0.0-7.0-2.18","subject_id":"60fcbfcbcc916a19cbd01796","study_id":"6437092920136b88d7967a4f","session_id":"643887c02c021b30654b34fc"},{"rt":null,"stimulus":"\n          <p>Trial 20 of 21</p>\n        ","response":null,"phase":"test","trial_type":"html-keyboard-response","trial_index":71,"time_elapsed":303238,"internal_node_id":"0.0-7.0-0.19","subject_id":"60fcbfcbcc916a19cbd01796","study_id":"6437092920136b88d7967a4f","session_id":"643887c02c021b30654b34fc"},{"rt":875,"stimulus":"<div class=\"container\">\n        <div class=\"img-container\">\n            <div class=\"column\">\n                <img src=imgs/img-17.png class=\"img\" style=\"filter: blur(27px)\">\n                <div class=\"upvote\">\n                    <span class=\"upvote-count\">836</span>\n                </div>\n            </div>\n            <div class=\"column\">\n                <img src=imgs/img-9.png class=\"img\" style=\"filter: blur(25px)\">\n                <div class=\"upvote\">\n                    <span class=\"upvote-count\">686</span>\n                </div>\n            </div>\n        </div>\n    </div> \n    <br>\n    <p>Which one do you want to reveal?</p>","response":"arrowright","phase":"test","task":"choose","left_img":17,"left_upvote":836,"left_blur":27,"right_img":9,"right_upvote":686,"right_blur":25,"check":true,"trial_type":"html-keyboard-response","trial_index":72,"time_elapsed":304112,"internal_node_id":"0.0-7.0-1.19","subject_id":"60fcbfcbcc916a19cbd01796","study_id":"6437092920136b88d7967a4f","session_id":"643887c02c021b30654b34fc"},{"rt":3226,"stimulus":"<div class=\"container\">\n        <div class=\"img-container\">\n            <div class=\"column\">\n                <img src=imgs/img-17.png class=\"img\" style=\"filter: blur(27px)\">\n                <div class=\"upvote\">\n                    <span class=\"upvote-count\">836</span>\n                </div>\n            </div>\n            <div class=\"column\">\n                <img src=imgs/img-9.png class=\"img\">\n                <div class=\"upvote\">\n                    <span class=\"upvote-count\">686</span>\n                </div>\n            </div>\n        </div>\n    </div>   \n    <br>\n    <p>Press any key to continue.</p>","response":"arrowright","phase":"test","task":"reveal","trial_type":"html-keyboard-response","trial_index":73,"time_elapsed":307340,"internal_node_id":"0.0-7.0-2.19","subject_id":"60fcbfcbcc916a19cbd01796","study_id":"6437092920136b88d7967a4f","session_id":"643887c02c021b30654b34fc"},{"rt":null,"stimulus":"\n          <p>Trial 21 of 21</p>\n        ","response":null,"phase":"test","trial_type":"html-keyboard-response","trial_index":74,"time_elapsed":308348,"internal_node_id":"0.0-7.0-0.20","subject_id":"60fcbfcbcc916a19cbd01796","study_id":"6437092920136b88d7967a4f","session_id":"643887c02c021b30654b34fc"},{"rt":1684,"stimulus":"<div class=\"container\">\n        <div class=\"img-container\">\n            <div class=\"column\">\n                <img src=imgs/img-25.png class=\"img\" style=\"filter: blur(23px)\">\n                <div class=\"upvote\">\n                    <span class=\"upvote-count\">384</span>\n                </div>\n            </div>\n            <div class=\"column\">\n                <img src=imgs/img-7.png class=\"img\" style=\"filter: blur(48px)\">\n                <div class=\"upvote\">\n                    <span class=\"upvote-count\">1006</span>\n                </div>\n            </div>\n        </div>\n    </div> \n    <br>\n    <p>Which one do you want to reveal?</p>","response":"arrowleft","phase":"test","task":"choose","left_img":25,"left_upvote":384,"left_blur":23,"right_img":7,"right_upvote":1006,"right_blur":48,"check":true,"trial_type":"html-keyboard-response","trial_index":75,"time_elapsed":310033,"internal_node_id":"0.0-7.0-1.20","subject_id":"60fcbfcbcc916a19cbd01796","study_id":"6437092920136b88d7967a4f","session_id":"643887c02c021b30654b34fc"},{"rt":2222,"stimulus":"<div class=\"container\">\n        <div class=\"img-container\">\n            <div class=\"column\">\n                <img src=imgs/img-25.png class=\"img\">\n                <div class=\"upvote\">\n                    <span class=\"upvote-count\">384</span>\n                </div>\n            </div>\n            <div class=\"column\">\n                <img src=imgs/img-7.png class=\"img\" style=\"filter: blur(48px)\">\n                <div class=\"upvote\">\n                    <span class=\"upvote-count\">1006</span>\n                </div>\n            </div>\n        </div>\n    </div> \n    <br>\n    <p>Press any key to continue.</p>","response":"arrowright","phase":"test","task":"reveal","trial_type":"html-keyboard-response","trial_index":76,"time_elapsed":312257,"internal_node_id":"0.0-7.0-2.20","subject_id":"60fcbfcbcc916a19cbd01796","study_id":"6437092920136b88d7967a4f","session_id":"643887c02c021b30654b34fc"}]