[{"success":true,"timeout":false,"failed_images":[],"failed_audio":[],"failed_video":[],"trial_type":"preload","trial_index":0,"time_elapsed":5499,"internal_node_id":"0.0-0.0","subject_id":"6303dc7b9ea8978d975282e2","study_id":"6437092920136b88d7967a4f","session_id":"643886ff45885d66513d6667"},{"rt":2928,"stimulus":"<p>Welcome to the experiment</p><br><p>Press any key to begin.</p>","response":"enter","trial_type":"html-keyboard-response","trial_index":1,"time_elapsed":8429,"internal_node_id":"0.0-1.0","subject_id":"6303dc7b9ea8978d975282e2","study_id":"6437092920136b88d7967a4f","session_id":"643886ff45885d66513d6667"},{"rt":null,"stimulus":"\n        <p>In each trial, you will see two different images sourced from a popular social platform.</p>\n        <p>Each image will have an upvote count above it.</p>\n        <p>An upvote is a like given by users of the platform and helps promote quality content and discussion on the platform.</p>\n        <p>A higher upvote count means more people like the post and recommend it to other users.</p>\n        <br>\n        <p>Press any key to continue.</p>\n      ","response":null,"trial_type":"html-keyboard-response","trial_index":2,"time_elapsed":10438,"internal_node_id":"0.0-2.0-0.0","subject_id":"6303dc7b9ea8978d975282e2","study_id":"6437092920136b88d7967a4f","session_id":"643886ff45885d66513d6667"},{"rt":10941,"stimulus":"\n        <p>In each trial, you will see two different images sourced from a popular social platform.</p>\n        <p>Each image will have an upvote count above it.</p>\n        <p>An upvote is a like given by users of the platform and helps promote quality content and discussion on the platform.</p>\n        <p>A higher upvote count means more people like the post and recommend it to other users.</p>\n        <br>\n        <p>Press any key to continue.</p>\n      ","response":"enter","trial_type":"html-keyboard-response","trial_index":3,"time_elapsed":21380,"internal_node_id":"0.0-2.0-1.0","subject_id":"6303dc7b9ea8978d975282e2","study_id":"6437092920136b88d7967a4f","session_id":"643886ff45885d66513d6667"},{"rt":null,"stimulus":"\n        <p>At the start of every trial, both images will be blurred.</p>\n        <p>The image you select will unblur itself, and the other one will stay the same.</p>\n        <p>Please take some time to consider both images and their upvote counts. If you respond too fast, you will not see the image.</p>\n        <br>\n        <p>Press any key to continue.</p>\n      ","response":null,"trial_type":"html-keyboard-response","trial_index":4,"time_elapsed":23390,"internal_node_id":"0.0-2.0-2.0","subject_id":"6303dc7b9ea8978d975282e2","study_id":"6437092920136b88d7967a4f","session_id":"643886ff45885d66513d6667"},{"rt":8361,"stimulus":"\n        <p>At the start of every trial, both images will be blurred.</p>\n        <p>The image you select will unblur itself, and the other one will stay the same.</p>\n        <p>Please take some time to consider both images and their upvote counts. If you respond too fast, you will not see the image.</p>\n        <br>\n        <p>Press any key to continue.</p>\n      ","response":"enter","trial_type":"html-keyboard-response","trial_index":5,"time_elapsed":31752,"internal_node_id":"0.0-2.0-3.0","subject_id":"6303dc7b9ea8978d975282e2","study_id":"6437092920136b88d7967a4f","session_id":"643886ff45885d66513d6667"},{"rt":null,"stimulus":"\n        <p>We will now go through 2 practice trials.</p>\n        <p>Press “←” on your keyboard to select the left image or “→” to select the right image.</p>\n        <br>\n        <p>On the next slide, you will see the images.</p>\n        <p>Press any key to continue.</p>\n      ","response":null,"trial_type":"html-keyboard-response","trial_index":6,"time_elapsed":33764,"internal_node_id":"0.0-2.0-4.0","subject_id":"6303dc7b9ea8978d975282e2","study_id":"6437092920136b88d7967a4f","session_id":"643886ff45885d66513d6667"},{"rt":7053,"stimulus":"\n        <p>We will now go through 2 practice trials.</p>\n        <p>Press “←” on your keyboard to select the left image or “→” to select the right image.</p>\n        <br>\n        <p>On the next slide, you will see the images.</p>\n        <p>Press any key to continue.</p>\n      ","response":"enter","trial_type":"html-keyboard-response","trial_index":7,"time_elapsed":40818,"internal_node_id":"0.0-2.0-5.0","subject_id":"6303dc7b9ea8978d975282e2","study_id":"6437092920136b88d7967a4f","session_id":"643886ff45885d66513d6667"},{"rt":2943,"stimulus":"<div class=\"container\">\n        <div class=\"img-container\">\n            <div class=\"column\">\n                <img src=imgs/img-prac-1.jpg class=\"img\" style=\"filter: blur(40px)\">\n                <div class=\"upvote\">\n                    <span class=\"upvote-count\">78</span>\n                </div>\n            </div>\n            <div class=\"column\">\n                <img src=imgs/img-prac-2.png class=\"img\" style=\"filter: blur(20px)\">\n                <div class=\"upvote\">\n                    <span class=\"upvote-count\">898</span>\n                </div>\n            </div>\n        </div>\n    </div> \n    <br>\n    <p>Which one do you want to reveal?</p>","response":"arrowleft","phase":"practice_1","task":"choose","left_upvote":78,"left_blur":40,"right_upvote":898,"right_blur":20,"check":true,"trial_type":"html-keyboard-response","trial_index":8,"time_elapsed":43767,"internal_node_id":"0.0-3.0-0.0","subject_id":"6303dc7b9ea8978d975282e2","study_id":"6437092920136b88d7967a4f","session_id":"643886ff45885d66513d6667"},{"rt":10103,"stimulus":"<div class=\"container\">\n        <div class=\"img-container\">\n            <div class=\"column\">\n                <img src=imgs/img-prac-1.jpg class=\"img\">\n                <div class=\"upvote\">\n                    <span class=\"upvote-count\">78</span>\n                </div>\n            </div>\n            <div class=\"column\">\n                <img src=imgs/img-prac-2.png class=\"img\" style=\"filter: blur(20px)\">\n                <div class=\"upvote\">\n                    <span class=\"upvote-count\">898</span>\n                </div>\n            </div>\n        </div>\n    </div> \n    <br>\n    <p>Press any key to continue.</p>","response":"enter","phase":"practice_1","task":"reveal","trial_type":"html-keyboard-response","trial_index":9,"time_elapsed":53881,"internal_node_id":"0.0-3.0-1.0","subject_id":"6303dc7b9ea8978d975282e2","study_id":"6437092920136b88d7967a4f","session_id":"643886ff45885d66513d6667"},{"rt":2980,"stimulus":"\n        <p>Great! Now try that with a different pair of images.</p>\n        <br>\n        <p>Press any key to continue.</p>\n      ","response":"enter","trial_type":"html-keyboard-response","trial_index":10,"time_elapsed":56863,"internal_node_id":"0.0-4.0-0.0","subject_id":"6303dc7b9ea8978d975282e2","study_id":"6437092920136b88d7967a4f","session_id":"643886ff45885d66513d6667"},{"rt":2578,"stimulus":"<div class=\"container\">\n        <div class=\"img-container\">\n            <div class=\"column\">\n                <img src=imgs/img-prac-3.png class=\"img\" style=\"filter: blur(10px)\">\n                <div class=\"upvote\">\n                    <span class=\"upvote-count\">1149</span>\n                </div>\n            </div>\n            <div class=\"column\">\n                <img src=imgs/img-prac-4.png class=\"img\" style=\"filter: blur(15px)\">\n                <div class=\"upvote\">\n                    <span class=\"upvote-count\">1529</span>\n                </div>\n            </div>\n        </div>\n    </div> \n    <br>\n    <p>Which one do you want to reveal?</p>","response":"arrowright","phase":"practice_2","task":"choose","left_upvote":1149,"left_blur":10,"right_upvote":1529,"right_blur":15,"check":true,"trial_type":"html-keyboard-response","trial_index":11,"time_elapsed":59443,"internal_node_id":"0.0-5.0-0.0","subject_id":"6303dc7b9ea8978d975282e2","study_id":"6437092920136b88d7967a4f","session_id":"643886ff45885d66513d6667"},{"rt":4929,"stimulus":"<div class=\"container\">\n        <div class=\"img-container\">\n            <div class=\"column\">\n                <img src=imgs/img-prac-3.png class=\"img\" style=\"filter: blur(10px)\">\n                <div class=\"upvote\">\n                    <span class=\"upvote-count\">1149</span>\n                </div>\n            </div>\n            <div class=\"column\">\n                <img src=imgs/img-prac-4.png class=\"img\">\n                <div class=\"upvote\">\n                    <span class=\"upvote-count\">1529</span>\n                </div>\n            </div>\n        </div>\n    </div>   \n    <br>\n    <p>Press any key to continue.</p>","response":"enter","phase":"practice_2","task":"reveal","trial_type":"html-keyboard-response","trial_index":12,"time_elapsed":64374,"internal_node_id":"0.0-5.0-1.0","subject_id":"6303dc7b9ea8978d975282e2","study_id":"6437092920136b88d7967a4f","session_id":"643886ff45885d66513d6667"},{"rt":3068,"stimulus":"\n        <p>You have completed the tutorial!</p>\n        <p>The experiment will begin starting from the next slide.</p>\n        <p>There are 21 trials in the experiment.</p>\n        <br>\n        <p>Press any key to continue when you are ready.</p>\n      ","response":"enter","trial_type":"html-keyboard-response","trial_index":13,"time_elapsed":67443,"internal_node_id":"0.0-6.0","subject_id":"6303dc7b9ea8978d975282e2","study_id":"6437092920136b88d7967a4f","session_id":"643886ff45885d66513d6667"},{"rt":null,"stimulus":"\n          <p>Trial 1 of 21</p>\n        ","response":null,"phase":"test","trial_type":"html-keyboard-response","trial_index":14,"time_elapsed":68453,"internal_node_id":"0.0-7.0-0.0","subject_id":"6303dc7b9ea8978d975282e2","study_id":"6437092920136b88d7967a4f","session_id":"643886ff45885d66513d6667"},{"rt":4213,"stimulus":"<div class=\"container\">\n        <div class=\"img-container\">\n            <div class=\"column\">\n                <img src=imgs/img-27.png class=\"img\" style=\"filter: blur(4px)\">\n                <div class=\"upvote\">\n                    <span class=\"upvote-count\">280</span>\n                </div>\n            </div>\n            <div class=\"column\">\n                <img src=imgs/img-2.png class=\"img\" style=\"filter: blur(3px)\">\n                <div class=\"upvote\">\n                    <span class=\"upvote-count\">1809</span>\n                </div>\n            </div>\n        </div>\n    </div> \n    <br>\n    <p>Which one do you want to reveal?</p>","response":"arrowleft","phase":"test","task":"choose","left_img":27,"left_upvote":280,"left_blur":4,"right_img":1,"right_upvote":1809,"right_blur":3,"check":true,"trial_type":"html-keyboard-response","trial_index":15,"time_elapsed":72668,"internal_node_id":"0.0-7.0-1.0","subject_id":"6303dc7b9ea8978d975282e2","study_id":"6437092920136b88d7967a4f","session_id":"643886ff45885d66513d6667"},{"rt":5705,"stimulus":"<div class=\"container\">\n        <div class=\"img-container\">\n            <div class=\"column\">\n                <img src=imgs/img-27.png class=\"img\">\n                <div class=\"upvote\">\n                    <span class=\"upvote-count\">280</span>\n                </div>\n            </div>\n            <div class=\"column\">\n                <img src=imgs/img-2.png class=\"img\" style=\"filter: blur(3px)\">\n                <div class=\"upvote\">\n                    <span class=\"upvote-count\">1809</span>\n                </div>\n            </div>\n        </div>\n    </div> \n    <br>\n    <p>Press any key to continue.</p>","response":"enter","phase":"test","task":"reveal","trial_type":"html-keyboard-response","trial_index":16,"time_elapsed":78374,"internal_node_id":"0.0-7.0-2.0","subject_id":"6303dc7b9ea8978d975282e2","study_id":"6437092920136b88d7967a4f","session_id":"643886ff45885d66513d6667"},{"rt":null,"stimulus":"\n          <p>Trial 2 of 21</p>\n        ","response":null,"phase":"test","trial_type":"html-keyboard-response","trial_index":17,"time_elapsed":79392,"internal_node_id":"0.0-7.0-0.1","subject_id":"6303dc7b9ea8978d975282e2","study_id":"6437092920136b88d7967a4f","session_id":"643886ff45885d66513d6667"},{"rt":1677,"stimulus":"<div class=\"container\">\n        <div class=\"img-container\">\n            <div class=\"column\">\n                <img src=imgs/img-15.png class=\"img\" style=\"filter: blur(11px)\">\n                <div class=\"upvote\">\n                    <span class=\"upvote-count\">875</span>\n                </div>\n            </div>\n            <div class=\"column\">\n                <img src=imgs/img-41.png class=\"img\" style=\"filter: blur(28px)\">\n                <div class=\"upvote\">\n                    <span class=\"upvote-count\">64</span>\n                </div>\n            </div>\n        </div>\n    </div> \n    <br>\n    <p>Which one do you want to reveal?</p>","response":"arrowleft","phase":"test","task":"choose","left_img":15,"left_upvote":875,"left_blur":11,"right_img":41,"right_upvote":64,"right_blur":28,"check":true,"trial_type":"html-keyboard-response","trial_index":18,"time_elapsed":81071,"internal_node_id":"0.0-7.0-1.1","subject_id":"6303dc7b9ea8978d975282e2","study_id":"6437092920136b88d7967a4f","session_id":"643886ff45885d66513d6667"},{"rt":1435,"stimulus":"<div class=\"container\">\n        <div class=\"img-container\">\n            <div class=\"column\">\n                <img src=imgs/img-15.png class=\"img\">\n                <div class=\"upvote\">\n                    <span class=\"upvote-count\">875</span>\n                </div>\n            </div>\n            <div class=\"column\">\n                <img src=imgs/img-41.png class=\"img\" style=\"filter: blur(28px)\">\n                <div class=\"upvote\">\n                    <span class=\"upvote-count\">64</span>\n                </div>\n            </div>\n        </div>\n    </div> \n    <br>\n    <p>Press any key to continue.</p>","response":"enter","phase":"test","task":"reveal","trial_type":"html-keyboard-response","trial_index":19,"time_elapsed":82507,"internal_node_id":"0.0-7.0-2.1","subject_id":"6303dc7b9ea8978d975282e2","study_id":"6437092920136b88d7967a4f","session_id":"643886ff45885d66513d6667"},{"rt":null,"stimulus":"\n          <p>Trial 3 of 21</p>\n        ","response":null,"phase":"test","trial_type":"html-keyboard-response","trial_index":20,"time_elapsed":83528,"internal_node_id":"0.0-7.0-0.2","subject_id":"6303dc7b9ea8978d975282e2","study_id":"6437092920136b88d7967a4f","session_id":"643886ff45885d66513d6667"},{"rt":2781,"stimulus":"<div class=\"container\">\n        <div class=\"img-container\">\n            <div class=\"column\">\n                <img src=imgs/img-19.png class=\"img\" style=\"filter: blur(17px)\">\n                <div class=\"upvote\">\n                    <span class=\"upvote-count\">600</span>\n                </div>\n            </div>\n            <div class=\"column\">\n                <img src=imgs/img-24.png class=\"img\" style=\"filter: blur(21px)\">\n                <div class=\"upvote\">\n                    <span class=\"upvote-count\">682</span>\n                </div>\n            </div>\n        </div>\n    </div> \n    <br>\n    <p>Which one do you want to reveal?</p>","response":"arrowright","phase":"test","task":"choose","left_img":19,"left_upvote":600,"left_blur":17,"right_img":24,"right_upvote":682,"right_blur":21,"check":true,"trial_type":"html-keyboard-response","trial_index":21,"time_elapsed":86310,"internal_node_id":"0.0-7.0-1.2","subject_id":"6303dc7b9ea8978d975282e2","study_id":"6437092920136b88d7967a4f","session_id":"643886ff45885d66513d6667"},{"rt":2235,"stimulus":"<div class=\"container\">\n        <div class=\"img-container\">\n            <div class=\"column\">\n                <img src=imgs/img-19.png class=\"img\" style=\"filter: blur(17px)\">\n                <div class=\"upvote\">\n                    <span class=\"upvote-count\">600</span>\n                </div>\n            </div>\n            <div class=\"column\">\n                <img src=imgs/img-24.png class=\"img\">\n                <div class=\"upvote\">\n                    <span class=\"upvote-count\">682</span>\n                </div>\n            </div>\n        </div>\n    </div>   \n    <br>\n    <p>Press any key to continue.</p>","response":"enter","phase":"test","task":"reveal","trial_type":"html-keyboard-response","trial_index":22,"time_elapsed":88551,"internal_node_id":"0.0-7.0-2.2","subject_id":"6303dc7b9ea8978d975282e2","study_id":"6437092920136b88d7967a4f","session_id":"643886ff45885d66513d6667"},{"rt":null,"stimulus":"\n          <p>Trial 4 of 21</p>\n        ","response":null,"phase":"test","trial_type":"html-keyboard-response","trial_index":23,"time_elapsed":89582,"internal_node_id":"0.0-7.0-0.3","subject_id":"6303dc7b9ea8978d975282e2","study_id":"6437092920136b88d7967a4f","session_id":"643886ff45885d66513d6667"},{"rt":3061,"stimulus":"<div class=\"container\">\n        <div class=\"img-container\">\n            <div class=\"column\">\n                <img src=imgs/img-26.png class=\"img\" style=\"filter: blur(31px)\">\n                <div class=\"upvote\">\n                    <span class=\"upvote-count\">355</span>\n                </div>\n            </div>\n            <div class=\"column\">\n                <img src=imgs/img-23.png class=\"img\" style=\"filter: blur(10px)\">\n                <div class=\"upvote\">\n                    <span class=\"upvote-count\">394</span>\n                </div>\n            </div>\n        </div>\n    </div> \n    <br>\n    <p>Which one do you want to reveal?</p>","response":"arrowright","phase":"test","task":"choose","left_img":26,"left_upvote":355,"left_blur":31,"right_img":23,"right_upvote":394,"right_blur":10,"check":true,"trial_type":"html-keyboard-response","trial_index":24,"time_elapsed":92644,"internal_node_id":"0.0-7.0-1.3","subject_id":"6303dc7b9ea8978d975282e2","study_id":"6437092920136b88d7967a4f","session_id":"643886ff45885d66513d6667"},{"rt":2213,"stimulus":"<div class=\"container\">\n        <div class=\"img-container\">\n            <div class=\"column\">\n                <img src=imgs/img-26.png class=\"img\" style=\"filter: blur(31px)\">\n                <div class=\"upvote\">\n                    <span class=\"upvote-count\">355</span>\n                </div>\n            </div>\n            <div class=\"column\">\n                <img src=imgs/img-23.png class=\"img\">\n                <div class=\"upvote\">\n                    <span class=\"upvote-count\">394</span>\n                </div>\n            </div>\n        </div>\n    </div>   \n    <br>\n    <p>Press any key to continue.</p>","response":"enter","phase":"test","task":"reveal","trial_type":"html-keyboard-response","trial_index":25,"time_elapsed":94859,"internal_node_id":"0.0-7.0-2.3","subject_id":"6303dc7b9ea8978d975282e2","study_id":"6437092920136b88d7967a4f","session_id":"643886ff45885d66513d6667"},{"rt":null,"stimulus":"\n          <p>Trial 5 of 21</p>\n        ","response":null,"phase":"test","trial_type":"html-keyboard-response","trial_index":26,"time_elapsed":95874,"internal_node_id":"0.0-7.0-0.4","subject_id":"6303dc7b9ea8978d975282e2","study_id":"6437092920136b88d7967a4f","session_id":"643886ff45885d66513d6667"},{"rt":3272,"stimulus":"<div class=\"container\">\n        <div class=\"img-container\">\n            <div class=\"column\">\n                <img src=imgs/img-33.png class=\"img\" style=\"filter: blur(3px)\">\n                <div class=\"upvote\">\n                    <span class=\"upvote-count\">134</span>\n                </div>\n            </div>\n            <div class=\"column\">\n                <img src=imgs/img-5.png class=\"img\" style=\"filter: blur(3px)\">\n                <div class=\"upvote\">\n                    <span class=\"upvote-count\">1302</span>\n                </div>\n            </div>\n        </div>\n    </div> \n    <br>\n    <p>Which one do you want to reveal?</p>","response":"arrowright","phase":"test","task":"choose","left_img":33,"left_upvote":134,"left_blur":3,"right_img":5,"right_upvote":1302,"right_blur":3,"check":true,"trial_type":"html-keyboard-response","trial_index":27,"time_elapsed":99148,"internal_node_id":"0.0-7.0-1.4","subject_id":"6303dc7b9ea8978d975282e2","study_id":"6437092920136b88d7967a4f","session_id":"643886ff45885d66513d6667"},{"rt":804,"stimulus":"<div class=\"container\">\n        <div class=\"img-container\">\n            <div class=\"column\">\n                <img src=imgs/img-33.png class=\"img\" style=\"filter: blur(3px)\">\n                <div class=\"upvote\">\n                    <span class=\"upvote-count\">134</span>\n                </div>\n            </div>\n            <div class=\"column\">\n                <img src=imgs/img-5.png class=\"img\">\n                <div class=\"upvote\">\n                    <span class=\"upvote-count\">1302</span>\n                </div>\n            </div>\n        </div>\n    </div>   \n    <br>\n    <p>Press any key to continue.</p>","response":"enter","phase":"test","task":"reveal","trial_type":"html-keyboard-response","trial_index":28,"time_elapsed":99957,"internal_node_id":"0.0-7.0-2.4","subject_id":"6303dc7b9ea8978d975282e2","study_id":"6437092920136b88d7967a4f","session_id":"643886ff45885d66513d6667"},{"rt":null,"stimulus":"\n          <p>Trial 6 of 21</p>\n        ","response":null,"phase":"test","trial_type":"html-keyboard-response","trial_index":29,"time_elapsed":100970,"internal_node_id":"0.0-7.0-0.5","subject_id":"6303dc7b9ea8978d975282e2","study_id":"6437092920136b88d7967a4f","session_id":"643886ff45885d66513d6667"},{"rt":2545,"stimulus":"<div class=\"container\">\n        <div class=\"img-container\">\n            <div class=\"column\">\n                <img src=imgs/img-39.png class=\"img\" style=\"filter: blur(6px)\">\n                <div class=\"upvote\">\n                    <span class=\"upvote-count\">70</span>\n                </div>\n            </div>\n            <div class=\"column\">\n                <img src=imgs/img-14.png class=\"img\" style=\"filter: blur(12px)\">\n                <div class=\"upvote\">\n                    <span class=\"upvote-count\">656</span>\n                </div>\n            </div>\n        </div>\n    </div> \n    <br>\n    <p>Which one do you want to reveal?</p>","response":"arrowright","phase":"test","task":"choose","left_img":39,"left_upvote":70,"left_blur":6,"right_img":14,"right_upvote":656,"right_blur":12,"check":true,"trial_type":"html-keyboard-response","trial_index":30,"time_elapsed":103516,"internal_node_id":"0.0-7.0-1.5","subject_id":"6303dc7b9ea8978d975282e2","study_id":"6437092920136b88d7967a4f","session_id":"643886ff45885d66513d6667"},{"rt":689,"stimulus":"<div class=\"container\">\n        <div class=\"img-container\">\n            <div class=\"column\">\n                <img src=imgs/img-39.png class=\"img\" style=\"filter: blur(6px)\">\n                <div class=\"upvote\">\n                    <span class=\"upvote-count\">70</span>\n                </div>\n            </div>\n            <div class=\"column\">\n                <img src=imgs/img-14.png class=\"img\">\n                <div class=\"upvote\">\n                    <span class=\"upvote-count\">656</span>\n                </div>\n            </div>\n        </div>\n    </div>   \n    <br>\n    <p>Press any key to continue.</p>","response":"enter","phase":"test","task":"reveal","trial_type":"html-keyboard-response","trial_index":31,"time_elapsed":104206,"internal_node_id":"0.0-7.0-2.5","subject_id":"6303dc7b9ea8978d975282e2","study_id":"6437092920136b88d7967a4f","session_id":"643886ff45885d66513d6667"},{"rt":null,"stimulus":"\n          <p>Trial 7 of 21</p>\n        ","response":null,"phase":"test","trial_type":"html-keyboard-response","trial_index":32,"time_elapsed":105218,"internal_node_id":"0.0-7.0-0.6","subject_id":"6303dc7b9ea8978d975282e2","study_id":"6437092920136b88d7967a4f","session_id":"643886ff45885d66513d6667"},{"rt":3031,"stimulus":"<div class=\"container\">\n        <div class=\"img-container\">\n            <div class=\"column\">\n                <img src=imgs/img-20.png class=\"img\" style=\"filter: blur(5px)\">\n                <div class=\"upvote\">\n                    <span class=\"upvote-count\">558</span>\n                </div>\n            </div>\n            <div class=\"column\">\n                <img src=imgs/img-8.png class=\"img\" style=\"filter: blur(16px)\">\n                <div class=\"upvote\">\n                    <span class=\"upvote-count\">976</span>\n                </div>\n            </div>\n        </div>\n    </div> \n    <br>\n    <p>Which one do you want to reveal?</p>","response":"arrowright","phase":"test","task":"choose","left_img":20,"left_upvote":558,"left_blur":5,"right_img":8,"right_upvote":976,"right_blur":16,"check":true,"trial_type":"html-keyboard-response","trial_index":33,"time_elapsed":108250,"internal_node_id":"0.0-7.0-1.6","subject_id":"6303dc7b9ea8978d975282e2","study_id":"6437092920136b88d7967a4f","session_id":"643886ff45885d66513d6667"},{"rt":383,"stimulus":"<div class=\"container\">\n        <div class=\"img-container\">\n            <div class=\"column\">\n                <img src=imgs/img-20.png class=\"img\" style=\"filter: blur(5px)\">\n                <div class=\"upvote\">\n                    <span class=\"upvote-count\">558</span>\n                </div>\n            </div>\n            <div class=\"column\">\n                <img src=imgs/img-8.png class=\"img\">\n                <div class=\"upvote\">\n                    <span class=\"upvote-count\">976</span>\n                </div>\n            </div>\n        </div>\n    </div>   \n    <br>\n    <p>Press any key to continue.</p>","response":"enter","phase":"test","task":"reveal","trial_type":"html-keyboard-response","trial_index":34,"time_elapsed":108635,"internal_node_id":"0.0-7.0-2.6","subject_id":"6303dc7b9ea8978d975282e2","study_id":"6437092920136b88d7967a4f","session_id":"643886ff45885d66513d6667"},{"rt":null,"stimulus":"\n          <p>Trial 8 of 21</p>\n        ","response":null,"phase":"test","trial_type":"html-keyboard-response","trial_index":35,"time_elapsed":109651,"internal_node_id":"0.0-7.0-0.7","subject_id":"6303dc7b9ea8978d975282e2","study_id":"6437092920136b88d7967a4f","session_id":"643886ff45885d66513d6667"},{"rt":2990,"stimulus":"<div class=\"container\">\n        <div class=\"img-container\">\n            <div class=\"column\">\n                <img src=imgs/img-36.png class=\"img\" style=\"filter: blur(19px)\">\n                <div class=\"upvote\">\n                    <span class=\"upvote-count\">105</span>\n                </div>\n            </div>\n            <div class=\"column\">\n                <img src=imgs/img-12.png class=\"img\" style=\"filter: blur(22px)\">\n                <div class=\"upvote\">\n                    <span class=\"upvote-count\">1676</span>\n                </div>\n            </div>\n        </div>\n    </div> \n    <br>\n    <p>Which one do you want to reveal?</p>","response":"arrowright","phase":"test","task":"choose","left_img":36,"left_upvote":105,"left_blur":19,"right_img":12,"right_upvote":1676,"right_blur":22,"check":true,"trial_type":"html-keyboard-response","trial_index":36,"time_elapsed":112642,"internal_node_id":"0.0-7.0-1.7","subject_id":"6303dc7b9ea8978d975282e2","study_id":"6437092920136b88d7967a4f","session_id":"643886ff45885d66513d6667"},{"rt":631,"stimulus":"<div class=\"container\">\n        <div class=\"img-container\">\n            <div class=\"column\">\n                <img src=imgs/img-36.png class=\"img\" style=\"filter: blur(19px)\">\n                <div class=\"upvote\">\n                    <span class=\"upvote-count\">105</span>\n                </div>\n            </div>\n            <div class=\"column\">\n                <img src=imgs/img-12.png class=\"img\">\n                <div class=\"upvote\">\n                    <span class=\"upvote-count\">1676</span>\n                </div>\n            </div>\n        </div>\n    </div>   \n    <br>\n    <p>Press any key to continue.</p>","response":"enter","phase":"test","task":"reveal","trial_type":"html-keyboard-response","trial_index":37,"time_elapsed":113275,"internal_node_id":"0.0-7.0-2.7","subject_id":"6303dc7b9ea8978d975282e2","study_id":"6437092920136b88d7967a4f","session_id":"643886ff45885d66513d6667"},{"rt":null,"stimulus":"\n          <p>Trial 9 of 21</p>\n        ","response":null,"phase":"test","trial_type":"html-keyboard-response","trial_index":38,"time_elapsed":114309,"internal_node_id":"0.0-7.0-0.8","subject_id":"6303dc7b9ea8978d975282e2","study_id":"6437092920136b88d7967a4f","session_id":"643886ff45885d66513d6667"},{"rt":2363,"stimulus":"<div class=\"container\">\n        <div class=\"img-container\">\n            <div class=\"column\">\n                <img src=imgs/img-11.png class=\"img\" style=\"filter: blur(24px)\">\n                <div class=\"upvote\">\n                    <span class=\"upvote-count\">3043</span>\n                </div>\n            </div>\n            <div class=\"column\">\n                <img src=imgs/img-42.png class=\"img\" style=\"filter: blur(23px)\">\n                <div class=\"upvote\">\n                    <span class=\"upvote-count\">763</span>\n                </div>\n            </div>\n        </div>\n    </div> \n    <br>\n    <p>Which one do you want to reveal?</p>","response":"arrowleft","phase":"test","task":"choose","left_img":11,"left_upvote":3043,"left_blur":24,"right_img":42,"right_upvote":763,"right_blur":23,"check":true,"trial_type":"html-keyboard-response","trial_index":39,"time_elapsed":116673,"internal_node_id":"0.0-7.0-1.8","subject_id":"6303dc7b9ea8978d975282e2","study_id":"6437092920136b88d7967a4f","session_id":"643886ff45885d66513d6667"},{"rt":1298,"stimulus":"<div class=\"container\">\n        <div class=\"img-container\">\n            <div class=\"column\">\n                <img src=imgs/img-11.png class=\"img\">\n                <div class=\"upvote\">\n                    <span class=\"upvote-count\">3043</span>\n                </div>\n            </div>\n            <div class=\"column\">\n                <img src=imgs/img-42.png class=\"img\" style=\"filter: blur(23px)\">\n                <div class=\"upvote\">\n                    <span class=\"upvote-count\">763</span>\n                </div>\n            </div>\n        </div>\n    </div> \n    <br>\n    <p>Press any key to continue.</p>","response":"enter","phase":"test","task":"reveal","trial_type":"html-keyboard-response","trial_index":40,"time_elapsed":117972,"internal_node_id":"0.0-7.0-2.8","subject_id":"6303dc7b9ea8978d975282e2","study_id":"6437092920136b88d7967a4f","session_id":"643886ff45885d66513d6667"},{"rt":null,"stimulus":"\n          <p>Trial 10 of 21</p>\n        ","response":null,"phase":"test","trial_type":"html-keyboard-response","trial_index":41,"time_elapsed":119060,"internal_node_id":"0.0-7.0-0.9","subject_id":"6303dc7b9ea8978d975282e2","study_id":"6437092920136b88d7967a4f","session_id":"643886ff45885d66513d6667"},{"rt":1579,"stimulus":"<div class=\"container\">\n        <div class=\"img-container\">\n            <div class=\"column\">\n                <img src=imgs/img-3.png class=\"img\" style=\"filter: blur(18px)\">\n                <div class=\"upvote\">\n                    <span class=\"upvote-count\">1756</span>\n                </div>\n            </div>\n            <div class=\"column\">\n                <img src=imgs/img-21.png class=\"img\" style=\"filter: blur(26px)\">\n                <div class=\"upvote\">\n                    <span class=\"upvote-count\">510</span>\n                </div>\n            </div>\n        </div>\n    </div> \n    <br>\n    <p>Which one do you want to reveal?</p>","response":"arrowright","phase":"test","task":"choose","left_img":3,"left_upvote":1756,"left_blur":18,"right_img":21,"right_upvote":510,"right_blur":26,"check":true,"trial_type":"html-keyboard-response","trial_index":42,"time_elapsed":120642,"internal_node_id":"0.0-7.0-1.9","subject_id":"6303dc7b9ea8978d975282e2","study_id":"6437092920136b88d7967a4f","session_id":"643886ff45885d66513d6667"},{"rt":2113,"stimulus":"<div class=\"container\">\n        <div class=\"img-container\">\n            <div class=\"column\">\n                <img src=imgs/img-3.png class=\"img\" style=\"filter: blur(18px)\">\n                <div class=\"upvote\">\n                    <span class=\"upvote-count\">1756</span>\n                </div>\n            </div>\n            <div class=\"column\">\n                <img src=imgs/img-21.png class=\"img\">\n                <div class=\"upvote\">\n                    <span class=\"upvote-count\">510</span>\n                </div>\n            </div>\n        </div>\n    </div>   \n    <br>\n    <p>Press any key to continue.</p>","response":"enter","phase":"test","task":"reveal","trial_type":"html-keyboard-response","trial_index":43,"time_elapsed":122756,"internal_node_id":"0.0-7.0-2.9","subject_id":"6303dc7b9ea8978d975282e2","study_id":"6437092920136b88d7967a4f","session_id":"643886ff45885d66513d6667"},{"rt":null,"stimulus":"\n          <p>Trial 11 of 21</p>\n        ","response":null,"phase":"test","trial_type":"html-keyboard-response","trial_index":44,"time_elapsed":123771,"internal_node_id":"0.0-7.0-0.10","subject_id":"6303dc7b9ea8978d975282e2","study_id":"6437092920136b88d7967a4f","session_id":"643886ff45885d66513d6667"},{"rt":2267,"stimulus":"<div class=\"container\">\n        <div class=\"img-container\">\n            <div class=\"column\">\n                <img src=imgs/img-7.png class=\"img\" style=\"filter: blur(21px)\">\n                <div class=\"upvote\">\n                    <span class=\"upvote-count\">1006</span>\n                </div>\n            </div>\n            <div class=\"column\">\n                <img src=imgs/img-34.png class=\"img\" style=\"filter: blur(40px)\">\n                <div class=\"upvote\">\n                    <span class=\"upvote-count\">124</span>\n                </div>\n            </div>\n        </div>\n    </div> \n    <br>\n    <p>Which one do you want to reveal?</p>","response":"arrowleft","phase":"test","task":"choose","left_img":7,"left_upvote":1006,"left_blur":21,"right_img":34,"right_upvote":124,"right_blur":40,"check":true,"trial_type":"html-keyboard-response","trial_index":45,"time_elapsed":126039,"internal_node_id":"0.0-7.0-1.10","subject_id":"6303dc7b9ea8978d975282e2","study_id":"6437092920136b88d7967a4f","session_id":"643886ff45885d66513d6667"},{"rt":1698,"stimulus":"<div class=\"container\">\n        <div class=\"img-container\">\n            <div class=\"column\">\n                <img src=imgs/img-7.png class=\"img\">\n                <div class=\"upvote\">\n                    <span class=\"upvote-count\">1006</span>\n                </div>\n            </div>\n            <div class=\"column\">\n                <img src=imgs/img-34.png class=\"img\" style=\"filter: blur(40px)\">\n                <div class=\"upvote\">\n                    <span class=\"upvote-count\">124</span>\n                </div>\n            </div>\n        </div>\n    </div> \n    <br>\n    <p>Press any key to continue.</p>","response":"enter","phase":"test","task":"reveal","trial_type":"html-keyboard-response","trial_index":46,"time_elapsed":127742,"internal_node_id":"0.0-7.0-2.10","subject_id":"6303dc7b9ea8978d975282e2","study_id":"6437092920136b88d7967a4f","session_id":"643886ff45885d66513d6667"},{"rt":null,"stimulus":"\n          <p>Trial 12 of 21</p>\n        ","response":null,"phase":"test","trial_type":"html-keyboard-response","trial_index":47,"time_elapsed":128786,"internal_node_id":"0.0-7.0-0.11","subject_id":"6303dc7b9ea8978d975282e2","study_id":"6437092920136b88d7967a4f","session_id":"643886ff45885d66513d6667"},{"rt":2722,"stimulus":"<div class=\"container\">\n        <div class=\"img-container\">\n            <div class=\"column\">\n                <img src=imgs/img-40.png class=\"img\" style=\"filter: blur(41px)\">\n                <div class=\"upvote\">\n                    <span class=\"upvote-count\">46</span>\n                </div>\n            </div>\n            <div class=\"column\">\n                <img src=imgs/img-31.png class=\"img\" style=\"filter: blur(23px)\">\n                <div class=\"upvote\">\n                    <span class=\"upvote-count\">241</span>\n                </div>\n            </div>\n        </div>\n    </div> \n    <br>\n    <p>Which one do you want to reveal?</p>","response":"arrowright","phase":"test","task":"choose","left_img":40,"left_upvote":46,"left_blur":41,"right_img":31,"right_upvote":241,"right_blur":23,"check":true,"trial_type":"html-keyboard-response","trial_index":48,"time_elapsed":131509,"internal_node_id":"0.0-7.0-1.11","subject_id":"6303dc7b9ea8978d975282e2","study_id":"6437092920136b88d7967a4f","session_id":"643886ff45885d66513d6667"},{"rt":286,"stimulus":"<div class=\"container\">\n        <div class=\"img-container\">\n            <div class=\"column\">\n                <img src=imgs/img-40.png class=\"img\" style=\"filter: blur(41px)\">\n                <div class=\"upvote\">\n                    <span class=\"upvote-count\">46</span>\n                </div>\n            </div>\n            <div class=\"column\">\n                <img src=imgs/img-31.png class=\"img\">\n                <div class=\"upvote\">\n                    <span class=\"upvote-count\">241</span>\n                </div>\n            </div>\n        </div>\n    </div>   \n    <br>\n    <p>Press any key to continue.</p>","response":"enter","phase":"test","task":"reveal","trial_type":"html-keyboard-response","trial_index":49,"time_elapsed":131797,"internal_node_id":"0.0-7.0-2.11","subject_id":"6303dc7b9ea8978d975282e2","study_id":"6437092920136b88d7967a4f","session_id":"643886ff45885d66513d6667"},{"rt":null,"stimulus":"\n          <p>Trial 13 of 21</p>\n        ","response":null,"phase":"test","trial_type":"html-keyboard-response","trial_index":50,"time_elapsed":132807,"internal_node_id":"0.0-7.0-0.12","subject_id":"6303dc7b9ea8978d975282e2","study_id":"6437092920136b88d7967a4f","session_id":"643886ff45885d66513d6667"},{"rt":4022,"stimulus":"<div class=\"container\">\n        <div class=\"img-container\">\n            <div class=\"column\">\n                <img src=imgs/img-18.png class=\"img\" style=\"filter: blur(25px)\">\n                <div class=\"upvote\">\n                    <span class=\"upvote-count\">743</span>\n                </div>\n            </div>\n            <div class=\"column\">\n                <img src=imgs/img-35.png class=\"img\" style=\"filter: blur(32px)\">\n                <div class=\"upvote\">\n                    <span class=\"upvote-count\">114</span>\n                </div>\n            </div>\n        </div>\n    </div> \n    <br>\n    <p>Which one do you want to reveal?</p>","response":"arrowleft","phase":"test","task":"choose","left_img":18,"left_upvote":743,"left_blur":25,"right_img":35,"right_upvote":114,"right_blur":32,"check":true,"trial_type":"html-keyboard-response","trial_index":51,"time_elapsed":136834,"internal_node_id":"0.0-7.0-1.12","subject_id":"6303dc7b9ea8978d975282e2","study_id":"6437092920136b88d7967a4f","session_id":"643886ff45885d66513d6667"},{"rt":1221,"stimulus":"<div class=\"container\">\n        <div class=\"img-container\">\n            <div class=\"column\">\n                <img src=imgs/img-18.png class=\"img\">\n                <div class=\"upvote\">\n                    <span class=\"upvote-count\">743</span>\n                </div>\n            </div>\n            <div class=\"column\">\n                <img src=imgs/img-35.png class=\"img\" style=\"filter: blur(32px)\">\n                <div class=\"upvote\">\n                    <span class=\"upvote-count\">114</span>\n                </div>\n            </div>\n        </div>\n    </div> \n    <br>\n    <p>Press any key to continue.</p>","response":"enter","phase":"test","task":"reveal","trial_type":"html-keyboard-response","trial_index":52,"time_elapsed":138057,"internal_node_id":"0.0-7.0-2.12","subject_id":"6303dc7b9ea8978d975282e2","study_id":"6437092920136b88d7967a4f","session_id":"643886ff45885d66513d6667"},{"rt":null,"stimulus":"\n          <p>Trial 14 of 21</p>\n        ","response":null,"phase":"test","trial_type":"html-keyboard-response","trial_index":53,"time_elapsed":139071,"internal_node_id":"0.0-7.0-0.13","subject_id":"6303dc7b9ea8978d975282e2","study_id":"6437092920136b88d7967a4f","session_id":"643886ff45885d66513d6667"},{"rt":3826,"stimulus":"<div class=\"container\">\n        <div class=\"img-container\">\n            <div class=\"column\">\n                <img src=imgs/img-9.png class=\"img\" style=\"filter: blur(18px)\">\n                <div class=\"upvote\">\n                    <span class=\"upvote-count\">686</span>\n                </div>\n            </div>\n            <div class=\"column\">\n                <img src=imgs/img-22.png class=\"img\" style=\"filter: blur(5px)\">\n                <div class=\"upvote\">\n                    <span class=\"upvote-count\">499</span>\n                </div>\n            </div>\n        </div>\n    </div> \n    <br>\n    <p>Which one do you want to reveal?</p>","response":"arrowleft","phase":"test","task":"choose","left_img":9,"left_upvote":686,"left_blur":18,"right_img":22,"right_upvote":499,"right_blur":5,"check":true,"trial_type":"html-keyboard-response","trial_index":54,"time_elapsed":142898,"internal_node_id":"0.0-7.0-1.13","subject_id":"6303dc7b9ea8978d975282e2","study_id":"6437092920136b88d7967a4f","session_id":"643886ff45885d66513d6667"},{"rt":323,"stimulus":"<div class=\"container\">\n        <div class=\"img-container\">\n            <div class=\"column\">\n                <img src=imgs/img-9.png class=\"img\">\n                <div class=\"upvote\">\n                    <span class=\"upvote-count\">686</span>\n                </div>\n            </div>\n            <div class=\"column\">\n                <img src=imgs/img-22.png class=\"img\" style=\"filter: blur(5px)\">\n                <div class=\"upvote\">\n                    <span class=\"upvote-count\">499</span>\n                </div>\n            </div>\n        </div>\n    </div> \n    <br>\n    <p>Press any key to continue.</p>","response":"shift","phase":"test","task":"reveal","trial_type":"html-keyboard-response","trial_index":55,"time_elapsed":143222,"internal_node_id":"0.0-7.0-2.13","subject_id":"6303dc7b9ea8978d975282e2","study_id":"6437092920136b88d7967a4f","session_id":"643886ff45885d66513d6667"},{"rt":null,"stimulus":"\n          <p>Trial 15 of 21</p>\n        ","response":null,"phase":"test","trial_type":"html-keyboard-response","trial_index":56,"time_elapsed":144232,"internal_node_id":"0.0-7.0-0.14","subject_id":"6303dc7b9ea8978d975282e2","study_id":"6437092920136b88d7967a4f","session_id":"643886ff45885d66513d6667"},{"rt":3368,"stimulus":"<div class=\"container\">\n        <div class=\"img-container\">\n            <div class=\"column\">\n                <img src=imgs/img-1.png class=\"img\" style=\"filter: blur(10px)\">\n                <div class=\"upvote\">\n                    <span class=\"upvote-count\">2059</span>\n                </div>\n            </div>\n            <div class=\"column\">\n                <img src=imgs/img-17.png class=\"img\" style=\"filter: blur(9px)\">\n                <div class=\"upvote\">\n                    <span class=\"upvote-count\">836</span>\n                </div>\n            </div>\n        </div>\n    </div> \n    <br>\n    <p>Which one do you want to reveal?</p>","response":"arrowleft","phase":"test","task":"choose","left_img":1,"left_upvote":2059,"left_blur":10,"right_img":17,"right_upvote":836,"right_blur":9,"check":true,"trial_type":"html-keyboard-response","trial_index":57,"time_elapsed":147601,"internal_node_id":"0.0-7.0-1.14","subject_id":"6303dc7b9ea8978d975282e2","study_id":"6437092920136b88d7967a4f","session_id":"643886ff45885d66513d6667"},{"rt":2221,"stimulus":"<div class=\"container\">\n        <div class=\"img-container\">\n            <div class=\"column\">\n                <img src=imgs/img-1.png class=\"img\">\n                <div class=\"upvote\">\n                    <span class=\"upvote-count\">2059</span>\n                </div>\n            </div>\n            <div class=\"column\">\n                <img src=imgs/img-17.png class=\"img\" style=\"filter: blur(9px)\">\n                <div class=\"upvote\">\n                    <span class=\"upvote-count\">836</span>\n                </div>\n            </div>\n        </div>\n    </div> \n    <br>\n    <p>Press any key to continue.</p>","response":"enter","phase":"test","task":"reveal","trial_type":"html-keyboard-response","trial_index":58,"time_elapsed":149824,"internal_node_id":"0.0-7.0-2.14","subject_id":"6303dc7b9ea8978d975282e2","study_id":"6437092920136b88d7967a4f","session_id":"643886ff45885d66513d6667"},{"rt":null,"stimulus":"\n          <p>Trial 16 of 21</p>\n        ","response":null,"phase":"test","trial_type":"html-keyboard-response","trial_index":59,"time_elapsed":150844,"internal_node_id":"0.0-7.0-0.15","subject_id":"6303dc7b9ea8978d975282e2","study_id":"6437092920136b88d7967a4f","session_id":"643886ff45885d66513d6667"},{"rt":2775,"stimulus":"<div class=\"container\">\n        <div class=\"img-container\">\n            <div class=\"column\">\n                <img src=imgs/img-29.png class=\"img\" style=\"filter: blur(16px)\">\n                <div class=\"upvote\">\n                    <span class=\"upvote-count\">265</span>\n                </div>\n            </div>\n            <div class=\"column\">\n                <img src=imgs/img-30.png class=\"img\" style=\"filter: blur(40px)\">\n                <div class=\"upvote\">\n                    <span class=\"upvote-count\">206</span>\n                </div>\n            </div>\n        </div>\n    </div> \n    <br>\n    <p>Which one do you want to reveal?</p>","response":"arrowleft","phase":"test","task":"choose","left_img":29,"left_upvote":265,"left_blur":16,"right_img":30,"right_upvote":206,"right_blur":40,"check":true,"trial_type":"html-keyboard-response","trial_index":60,"time_elapsed":153620,"internal_node_id":"0.0-7.0-1.15","subject_id":"6303dc7b9ea8978d975282e2","study_id":"6437092920136b88d7967a4f","session_id":"643886ff45885d66513d6667"},{"rt":316,"stimulus":"<div class=\"container\">\n        <div class=\"img-container\">\n            <div class=\"column\">\n                <img src=imgs/img-29.png class=\"img\">\n                <div class=\"upvote\">\n                    <span class=\"upvote-count\">265</span>\n                </div>\n            </div>\n            <div class=\"column\">\n                <img src=imgs/img-30.png class=\"img\" style=\"filter: blur(40px)\">\n                <div class=\"upvote\">\n                    <span class=\"upvote-count\">206</span>\n                </div>\n            </div>\n        </div>\n    </div> \n    <br>\n    <p>Press any key to continue.</p>","response":"enter","phase":"test","task":"reveal","trial_type":"html-keyboard-response","trial_index":61,"time_elapsed":153937,"internal_node_id":"0.0-7.0-2.15","subject_id":"6303dc7b9ea8978d975282e2","study_id":"6437092920136b88d7967a4f","session_id":"643886ff45885d66513d6667"},{"rt":null,"stimulus":"\n          <p>Trial 17 of 21</p>\n        ","response":null,"phase":"test","trial_type":"html-keyboard-response","trial_index":62,"time_elapsed":154953,"internal_node_id":"0.0-7.0-0.16","subject_id":"6303dc7b9ea8978d975282e2","study_id":"6437092920136b88d7967a4f","session_id":"643886ff45885d66513d6667"},{"rt":27024,"stimulus":"<div class=\"container\">\n        <div class=\"img-container\">\n            <div class=\"column\">\n                <img src=imgs/img-10.png class=\"img\" style=\"filter: blur(13px)\">\n                <div class=\"upvote\">\n                    <span class=\"upvote-count\">3817</span>\n                </div>\n            </div>\n            <div class=\"column\">\n                <img src=imgs/img-16.png class=\"img\" style=\"filter: blur(29px)\">\n                <div class=\"upvote\">\n                    <span class=\"upvote-count\">845</span>\n                </div>\n            </div>\n        </div>\n    </div> \n    <br>\n    <p>Which one do you want to reveal?</p>","response":"arrowleft","phase":"test","task":"choose","left_img":10,"left_upvote":3817,"left_blur":13,"right_img":16,"right_upvote":845,"right_blur":29,"check":true,"trial_type":"html-keyboard-response","trial_index":63,"time_elapsed":181978,"internal_node_id":"0.0-7.0-1.16","subject_id":"6303dc7b9ea8978d975282e2","study_id":"6437092920136b88d7967a4f","session_id":"643886ff45885d66513d6667"},{"rt":989,"stimulus":"<div class=\"container\">\n        <div class=\"img-container\">\n            <div class=\"column\">\n                <img src=imgs/img-10.png class=\"img\">\n                <div class=\"upvote\">\n                    <span class=\"upvote-count\">3817</span>\n                </div>\n            </div>\n            <div class=\"column\">\n                <img src=imgs/img-16.png class=\"img\" style=\"filter: blur(29px)\">\n                <div class=\"upvote\">\n                    <span class=\"upvote-count\">845</span>\n                </div>\n            </div>\n        </div>\n    </div> \n    <br>\n    <p>Press any key to continue.</p>","response":"enter","phase":"test","task":"reveal","trial_type":"html-keyboard-response","trial_index":64,"time_elapsed":182968,"internal_node_id":"0.0-7.0-2.16","subject_id":"6303dc7b9ea8978d975282e2","study_id":"6437092920136b88d7967a4f","session_id":"643886ff45885d66513d6667"},{"rt":null,"stimulus":"\n          <p>Trial 18 of 21</p>\n        ","response":null,"phase":"test","trial_type":"html-keyboard-response","trial_index":65,"time_elapsed":183979,"internal_node_id":"0.0-7.0-0.17","subject_id":"6303dc7b9ea8978d975282e2","study_id":"6437092920136b88d7967a4f","session_id":"643886ff45885d66513d6667"},{"rt":2029,"stimulus":"<div class=\"container\">\n        <div class=\"img-container\">\n            <div class=\"column\">\n                <img src=imgs/img-4.png class=\"img\" style=\"filter: blur(40px)\">\n                <div class=\"upvote\">\n                    <span class=\"upvote-count\">1617</span>\n                </div>\n            </div>\n            <div class=\"column\">\n                <img src=imgs/img-37.png class=\"img\" style=\"filter: blur(23px)\">\n                <div class=\"upvote\">\n                    <span class=\"upvote-count\">99</span>\n                </div>\n            </div>\n        </div>\n    </div> \n    <br>\n    <p>Which one do you want to reveal?</p>","response":"arrowleft","phase":"test","task":"choose","left_img":4,"left_upvote":1617,"left_blur":40,"right_img":37,"right_upvote":99,"right_blur":23,"check":true,"trial_type":"html-keyboard-response","trial_index":66,"time_elapsed":186009,"internal_node_id":"0.0-7.0-1.17","subject_id":"6303dc7b9ea8978d975282e2","study_id":"6437092920136b88d7967a4f","session_id":"643886ff45885d66513d6667"},{"rt":305,"stimulus":"<div class=\"container\">\n        <div class=\"img-container\">\n            <div class=\"column\">\n                <img src=imgs/img-4.png class=\"img\">\n                <div class=\"upvote\">\n                    <span class=\"upvote-count\">1617</span>\n                </div>\n            </div>\n            <div class=\"column\">\n                <img src=imgs/img-37.png class=\"img\" style=\"filter: blur(23px)\">\n                <div class=\"upvote\">\n                    <span class=\"upvote-count\">99</span>\n                </div>\n            </div>\n        </div>\n    </div> \n    <br>\n    <p>Press any key to continue.</p>","response":"enter","phase":"test","task":"reveal","trial_type":"html-keyboard-response","trial_index":67,"time_elapsed":186316,"internal_node_id":"0.0-7.0-2.17","subject_id":"6303dc7b9ea8978d975282e2","study_id":"6437092920136b88d7967a4f","session_id":"643886ff45885d66513d6667"},{"rt":null,"stimulus":"\n          <p>Trial 19 of 21</p>\n        ","response":null,"phase":"test","trial_type":"html-keyboard-response","trial_index":68,"time_elapsed":187340,"internal_node_id":"0.0-7.0-0.18","subject_id":"6303dc7b9ea8978d975282e2","study_id":"6437092920136b88d7967a4f","session_id":"643886ff45885d66513d6667"},{"rt":2553,"stimulus":"<div class=\"container\">\n        <div class=\"img-container\">\n            <div class=\"column\">\n                <img src=imgs/img-38.png class=\"img\" style=\"filter: blur(22px)\">\n                <div class=\"upvote\">\n                    <span class=\"upvote-count\">24</span>\n                </div>\n            </div>\n            <div class=\"column\">\n                <img src=imgs/img-25.png class=\"img\" style=\"filter: blur(19px)\">\n                <div class=\"upvote\">\n                    <span class=\"upvote-count\">384</span>\n                </div>\n            </div>\n        </div>\n    </div> \n    <br>\n    <p>Which one do you want to reveal?</p>","response":"arrowright","phase":"test","task":"choose","left_img":38,"left_upvote":24,"left_blur":22,"right_img":25,"right_upvote":384,"right_blur":19,"check":true,"trial_type":"html-keyboard-response","trial_index":69,"time_elapsed":189894,"internal_node_id":"0.0-7.0-1.18","subject_id":"6303dc7b9ea8978d975282e2","study_id":"6437092920136b88d7967a4f","session_id":"643886ff45885d66513d6667"},{"rt":1290,"stimulus":"<div class=\"container\">\n        <div class=\"img-container\">\n            <div class=\"column\">\n                <img src=imgs/img-38.png class=\"img\" style=\"filter: blur(22px)\">\n                <div class=\"upvote\">\n                    <span class=\"upvote-count\">24</span>\n                </div>\n            </div>\n            <div class=\"column\">\n                <img src=imgs/img-25.png class=\"img\">\n                <div class=\"upvote\">\n                    <span class=\"upvote-count\">384</span>\n                </div>\n            </div>\n        </div>\n    </div>   \n    <br>\n    <p>Press any key to continue.</p>","response":"enter","phase":"test","task":"reveal","trial_type":"html-keyboard-response","trial_index":70,"time_elapsed":191185,"internal_node_id":"0.0-7.0-2.18","subject_id":"6303dc7b9ea8978d975282e2","study_id":"6437092920136b88d7967a4f","session_id":"643886ff45885d66513d6667"},{"rt":null,"stimulus":"\n          <p>Trial 20 of 21</p>\n        ","response":null,"phase":"test","trial_type":"html-keyboard-response","trial_index":71,"time_elapsed":192208,"internal_node_id":"0.0-7.0-0.19","subject_id":"6303dc7b9ea8978d975282e2","study_id":"6437092920136b88d7967a4f","session_id":"643886ff45885d66513d6667"},{"rt":2055,"stimulus":"<div class=\"container\">\n        <div class=\"img-container\">\n            <div class=\"column\">\n                <img src=imgs/img-6.png class=\"img\" style=\"filter: blur(19px)\">\n                <div class=\"upvote\">\n                    <span class=\"upvote-count\">1072</span>\n                </div>\n            </div>\n            <div class=\"column\">\n                <img src=imgs/img-28.png class=\"img\" style=\"filter: blur(4px)\">\n                <div class=\"upvote\">\n                    <span class=\"upvote-count\">312</span>\n                </div>\n            </div>\n        </div>\n    </div> \n    <br>\n    <p>Which one do you want to reveal?</p>","response":"arrowleft","phase":"test","task":"choose","left_img":6,"left_upvote":1072,"left_blur":19,"right_img":28,"right_upvote":312,"right_blur":4,"check":true,"trial_type":"html-keyboard-response","trial_index":72,"time_elapsed":194265,"internal_node_id":"0.0-7.0-1.19","subject_id":"6303dc7b9ea8978d975282e2","study_id":"6437092920136b88d7967a4f","session_id":"643886ff45885d66513d6667"},{"rt":2946,"stimulus":"<div class=\"container\">\n        <div class=\"img-container\">\n            <div class=\"column\">\n                <img src=imgs/img-6.png class=\"img\">\n                <div class=\"upvote\">\n                    <span class=\"upvote-count\">1072</span>\n                </div>\n            </div>\n            <div class=\"column\">\n                <img src=imgs/img-28.png class=\"img\" style=\"filter: blur(4px)\">\n                <div class=\"upvote\">\n                    <span class=\"upvote-count\">312</span>\n                </div>\n            </div>\n        </div>\n    </div> \n    <br>\n    <p>Press any key to continue.</p>","response":"enter","phase":"test","task":"reveal","trial_type":"html-keyboard-response","trial_index":73,"time_elapsed":197213,"internal_node_id":"0.0-7.0-2.19","subject_id":"6303dc7b9ea8978d975282e2","study_id":"6437092920136b88d7967a4f","session_id":"643886ff45885d66513d6667"},{"rt":null,"stimulus":"\n          <p>Trial 21 of 21</p>\n        ","response":null,"phase":"test","trial_type":"html-keyboard-response","trial_index":74,"time_elapsed":198261,"internal_node_id":"0.0-7.0-0.20","subject_id":"6303dc7b9ea8978d975282e2","study_id":"6437092920136b88d7967a4f","session_id":"643886ff45885d66513d6667"},{"rt":2149,"stimulus":"<div class=\"container\">\n        <div class=\"img-container\">\n            <div class=\"column\">\n                <img src=imgs/img-32.png class=\"img\" style=\"filter: blur(6px)\">\n                <div class=\"upvote\">\n                    <span class=\"upvote-count\">171</span>\n                </div>\n            </div>\n            <div class=\"column\">\n                <img src=imgs/img-13.png class=\"img\" style=\"filter: blur(17px)\">\n                <div class=\"upvote\">\n                    <span class=\"upvote-count\">1416</span>\n                </div>\n            </div>\n        </div>\n    </div> \n    <br>\n    <p>Which one do you want to reveal?</p>","response":"arrowright","phase":"test","task":"choose","left_img":32,"left_upvote":171,"left_blur":6,"right_img":13,"right_upvote":1416,"right_blur":17,"check":true,"trial_type":"html-keyboard-response","trial_index":75,"time_elapsed":200412,"internal_node_id":"0.0-7.0-1.20","subject_id":"6303dc7b9ea8978d975282e2","study_id":"6437092920136b88d7967a4f","session_id":"643886ff45885d66513d6667"},{"rt":662,"stimulus":"<div class=\"container\">\n        <div class=\"img-container\">\n            <div class=\"column\">\n                <img src=imgs/img-32.png class=\"img\" style=\"filter: blur(6px)\">\n                <div class=\"upvote\">\n                    <span class=\"upvote-count\">171</span>\n                </div>\n            </div>\n            <div class=\"column\">\n                <img src=imgs/img-13.png class=\"img\">\n                <div class=\"upvote\">\n                    <span class=\"upvote-count\">1416</span>\n                </div>\n            </div>\n        </div>\n    </div>   \n    <br>\n    <p>Press any key to continue.</p>","response":"enter","phase":"test","task":"reveal","trial_type":"html-keyboard-response","trial_index":76,"time_elapsed":201076,"internal_node_id":"0.0-7.0-2.20","subject_id":"6303dc7b9ea8978d975282e2","study_id":"6437092920136b88d7967a4f","session_id":"643886ff45885d66513d6667"}]