[{"success":true,"timeout":false,"failed_images":[],"failed_audio":[],"failed_video":[],"trial_type":"preload","trial_index":0,"time_elapsed":3430,"internal_node_id":"0.0-0.0","subject_id":"6384cefbecdecb6ae3e3641b","study_id":"6437092920136b88d7967a4f","session_id":"64388a2cac3355841927a023"},{"rt":2332,"stimulus":"<p>Welcome to the experiment</p><br><p>Press any key to begin.</p>","response":" ","trial_type":"html-keyboard-response","trial_index":1,"time_elapsed":5763,"internal_node_id":"0.0-1.0","subject_id":"6384cefbecdecb6ae3e3641b","study_id":"6437092920136b88d7967a4f","session_id":"64388a2cac3355841927a023"},{"rt":null,"stimulus":"\n        <p>In each trial, you will see two different images sourced from a popular social platform.</p>\n        <p>Each image will have an upvote count above it.</p>\n        <p>An upvote is a like given by users of the platform and helps promote quality content and discussion on the platform.</p>\n        <p>A higher upvote count means more people like the post and recommend it to other users.</p>\n        <br>\n        <p>Press any key to continue.</p>\n      ","response":null,"trial_type":"html-keyboard-response","trial_index":2,"time_elapsed":7763,"internal_node_id":"0.0-2.0-0.0","subject_id":"6384cefbecdecb6ae3e3641b","study_id":"6437092920136b88d7967a4f","session_id":"64388a2cac3355841927a023"},{"rt":9855,"stimulus":"\n        <p>In each trial, you will see two different images sourced from a popular social platform.</p>\n        <p>Each image will have an upvote count above it.</p>\n        <p>An upvote is a like given by users of the platform and helps promote quality content and discussion on the platform.</p>\n        <p>A higher upvote count means more people like the post and recommend it to other users.</p>\n        <br>\n        <p>Press any key to continue.</p>\n      ","response":"arrowright","trial_type":"html-keyboard-response","trial_index":3,"time_elapsed":17619,"internal_node_id":"0.0-2.0-1.0","subject_id":"6384cefbecdecb6ae3e3641b","study_id":"6437092920136b88d7967a4f","session_id":"64388a2cac3355841927a023"},{"rt":null,"stimulus":"\n        <p>At the start of every trial, both images will be blurred.</p>\n        <p>The image you select will unblur itself, and the other one will stay the same.</p>\n        <p>Please take some time to consider both images and their upvote counts. If you respond too fast, you will not see the image.</p>\n        <br>\n        <p>Press any key to continue.</p>\n      ","response":null,"trial_type":"html-keyboard-response","trial_index":4,"time_elapsed":19621,"internal_node_id":"0.0-2.0-2.0","subject_id":"6384cefbecdecb6ae3e3641b","study_id":"6437092920136b88d7967a4f","session_id":"64388a2cac3355841927a023"},{"rt":5565,"stimulus":"\n        <p>At the start of every trial, both images will be blurred.</p>\n        <p>The image you select will unblur itself, and the other one will stay the same.</p>\n        <p>Please take some time to consider both images and their upvote counts. If you respond too fast, you will not see the image.</p>\n        <br>\n        <p>Press any key to continue.</p>\n      ","response":"arrowright","trial_type":"html-keyboard-response","trial_index":5,"time_elapsed":25186,"internal_node_id":"0.0-2.0-3.0","subject_id":"6384cefbecdecb6ae3e3641b","study_id":"6437092920136b88d7967a4f","session_id":"64388a2cac3355841927a023"},{"rt":null,"stimulus":"\n        <p>We will now go through 2 practice trials.</p>\n        <p>Press “←” on your keyboard to select the left image or “→” to select the right image.</p>\n        <br>\n        <p>On the next slide, you will see the images.</p>\n        <p>Press any key to continue.</p>\n      ","response":null,"trial_type":"html-keyboard-response","trial_index":6,"time_elapsed":27188,"internal_node_id":"0.0-2.0-4.0","subject_id":"6384cefbecdecb6ae3e3641b","study_id":"6437092920136b88d7967a4f","session_id":"64388a2cac3355841927a023"},{"rt":3919,"stimulus":"\n        <p>We will now go through 2 practice trials.</p>\n        <p>Press “←” on your keyboard to select the left image or “→” to select the right image.</p>\n        <br>\n        <p>On the next slide, you will see the images.</p>\n        <p>Press any key to continue.</p>\n      ","response":"enter","trial_type":"html-keyboard-response","trial_index":7,"time_elapsed":31107,"internal_node_id":"0.0-2.0-5.0","subject_id":"6384cefbecdecb6ae3e3641b","study_id":"6437092920136b88d7967a4f","session_id":"64388a2cac3355841927a023"},{"rt":1046,"stimulus":"<div class=\"container\">\n        <div class=\"img-container\">\n            <div class=\"column\">\n                <img src=imgs/img-prac-1.jpg class=\"img\" style=\"filter: blur(40px)\">\n                <div class=\"upvote\">\n                    <span class=\"upvote-count\">78</span>\n                </div>\n            </div>\n            <div class=\"column\">\n                <img src=imgs/img-prac-2.png class=\"img\" style=\"filter: blur(20px)\">\n                <div class=\"upvote\">\n                    <span class=\"upvote-count\">898</span>\n                </div>\n            </div>\n        </div>\n    </div> \n    <br>\n    <p>Which one do you want to reveal?</p>","response":"arrowright","phase":"practice_1","task":"choose","left_upvote":78,"left_blur":40,"right_upvote":898,"right_blur":20,"check":true,"trial_type":"html-keyboard-response","trial_index":8,"time_elapsed":32154,"internal_node_id":"0.0-3.0-0.0","subject_id":"6384cefbecdecb6ae3e3641b","study_id":"6437092920136b88d7967a4f","session_id":"64388a2cac3355841927a023"},{"rt":3432,"stimulus":"<div class=\"container\">\n        <div class=\"img-container\">\n            <div class=\"column\">\n                <img src=imgs/img-prac-1.jpg class=\"img\" style=\"filter: blur(40px)\">\n                <div class=\"upvote\">\n                    <span class=\"upvote-count\">78</span>\n                </div>\n            </div>\n            <div class=\"column\">\n                <img src=imgs/img-prac-2.png class=\"img\">\n                <div class=\"upvote\">\n                    <span class=\"upvote-count\">898</span>\n                </div>\n            </div>\n        </div>\n    </div>   \n    <br>\n    <p>Press any key to continue.</p>","response":"enter","phase":"practice_1","task":"reveal","trial_type":"html-keyboard-response","trial_index":9,"time_elapsed":35586,"internal_node_id":"0.0-3.0-1.0","subject_id":"6384cefbecdecb6ae3e3641b","study_id":"6437092920136b88d7967a4f","session_id":"64388a2cac3355841927a023"},{"rt":3368,"stimulus":"\n        <p>Great! Now try that with a different pair of images.</p>\n        <br>\n        <p>Press any key to continue.</p>\n      ","response":"enter","trial_type":"html-keyboard-response","trial_index":10,"time_elapsed":38954,"internal_node_id":"0.0-4.0-0.0","subject_id":"6384cefbecdecb6ae3e3641b","study_id":"6437092920136b88d7967a4f","session_id":"64388a2cac3355841927a023"},{"rt":1463,"stimulus":"<div class=\"container\">\n        <div class=\"img-container\">\n            <div class=\"column\">\n                <img src=imgs/img-prac-3.png class=\"img\" style=\"filter: blur(10px)\">\n                <div class=\"upvote\">\n                    <span class=\"upvote-count\">1149</span>\n                </div>\n            </div>\n            <div class=\"column\">\n                <img src=imgs/img-prac-4.png class=\"img\" style=\"filter: blur(15px)\">\n                <div class=\"upvote\">\n                    <span class=\"upvote-count\">1529</span>\n                </div>\n            </div>\n        </div>\n    </div> \n    <br>\n    <p>Which one do you want to reveal?</p>","response":"arrowright","phase":"practice_2","task":"choose","left_upvote":1149,"left_blur":10,"right_upvote":1529,"right_blur":15,"check":true,"trial_type":"html-keyboard-response","trial_index":11,"time_elapsed":40418,"internal_node_id":"0.0-5.0-0.0","subject_id":"6384cefbecdecb6ae3e3641b","study_id":"6437092920136b88d7967a4f","session_id":"64388a2cac3355841927a023"},{"rt":2192,"stimulus":"<div class=\"container\">\n        <div class=\"img-container\">\n            <div class=\"column\">\n                <img src=imgs/img-prac-3.png class=\"img\" style=\"filter: blur(10px)\">\n                <div class=\"upvote\">\n                    <span class=\"upvote-count\">1149</span>\n                </div>\n            </div>\n            <div class=\"column\">\n                <img src=imgs/img-prac-4.png class=\"img\">\n                <div class=\"upvote\">\n                    <span class=\"upvote-count\">1529</span>\n                </div>\n            </div>\n        </div>\n    </div>   \n    <br>\n    <p>Press any key to continue.</p>","response":"enter","phase":"practice_2","task":"reveal","trial_type":"html-keyboard-response","trial_index":12,"time_elapsed":42611,"internal_node_id":"0.0-5.0-1.0","subject_id":"6384cefbecdecb6ae3e3641b","study_id":"6437092920136b88d7967a4f","session_id":"64388a2cac3355841927a023"},{"rt":4847,"stimulus":"\n        <p>You have completed the tutorial!</p>\n        <p>The experiment will begin starting from the next slide.</p>\n        <p>There are 21 trials in the experiment.</p>\n        <br>\n        <p>Press any key to continue when you are ready.</p>\n      ","response":"enter","trial_type":"html-keyboard-response","trial_index":13,"time_elapsed":47458,"internal_node_id":"0.0-6.0","subject_id":"6384cefbecdecb6ae3e3641b","study_id":"6437092920136b88d7967a4f","session_id":"64388a2cac3355841927a023"},{"rt":null,"stimulus":"\n          <p>Trial 1 of 21</p>\n        ","response":null,"phase":"test","trial_type":"html-keyboard-response","trial_index":14,"time_elapsed":48459,"internal_node_id":"0.0-7.0-0.0","subject_id":"6384cefbecdecb6ae3e3641b","study_id":"6437092920136b88d7967a4f","session_id":"64388a2cac3355841927a023"},{"rt":950,"stimulus":"<div class=\"container\">\n        <div class=\"img-container\">\n            <div class=\"column\">\n                <img src=imgs/img-2.png class=\"img\" style=\"filter: blur(8px)\">\n                <div class=\"upvote\">\n                    <span class=\"upvote-count\">1809</span>\n                </div>\n            </div>\n            <div class=\"column\">\n                <img src=imgs/img-40.png class=\"img\" style=\"filter: blur(4px)\">\n                <div class=\"upvote\">\n                    <span class=\"upvote-count\">46</span>\n                </div>\n            </div>\n        </div>\n    </div> \n    <br>\n    <p>Which one do you want to reveal?</p>","response":"arrowleft","phase":"test","task":"choose","left_img":1,"left_upvote":1809,"left_blur":8,"right_img":40,"right_upvote":46,"right_blur":4,"check":true,"trial_type":"html-keyboard-response","trial_index":15,"time_elapsed":49410,"internal_node_id":"0.0-7.0-1.0","subject_id":"6384cefbecdecb6ae3e3641b","study_id":"6437092920136b88d7967a4f","session_id":"64388a2cac3355841927a023"},{"rt":2576,"stimulus":"<div class=\"container\">\n        <div class=\"img-container\">\n            <div class=\"column\">\n                <img src=imgs/img-2.png class=\"img\">\n                <div class=\"upvote\">\n                    <span class=\"upvote-count\">1809</span>\n                </div>\n            </div>\n            <div class=\"column\">\n                <img src=imgs/img-40.png class=\"img\" style=\"filter: blur(4px)\">\n                <div class=\"upvote\">\n                    <span class=\"upvote-count\">46</span>\n                </div>\n            </div>\n        </div>\n    </div> \n    <br>\n    <p>Press any key to continue.</p>","response":"enter","phase":"test","task":"reveal","trial_type":"html-keyboard-response","trial_index":16,"time_elapsed":51986,"internal_node_id":"0.0-7.0-2.0","subject_id":"6384cefbecdecb6ae3e3641b","study_id":"6437092920136b88d7967a4f","session_id":"64388a2cac3355841927a023"},{"rt":null,"stimulus":"\n          <p>Trial 2 of 21</p>\n        ","response":null,"phase":"test","trial_type":"html-keyboard-response","trial_index":17,"time_elapsed":52987,"internal_node_id":"0.0-7.0-0.1","subject_id":"6384cefbecdecb6ae3e3641b","study_id":"6437092920136b88d7967a4f","session_id":"64388a2cac3355841927a023"},{"rt":1367,"stimulus":"<div class=\"container\">\n        <div class=\"img-container\">\n            <div class=\"column\">\n                <img src=imgs/img-9.png class=\"img\" style=\"filter: blur(6px)\">\n                <div class=\"upvote\">\n                    <span class=\"upvote-count\">686</span>\n                </div>\n            </div>\n            <div class=\"column\">\n                <img src=imgs/img-42.png class=\"img\" style=\"filter: blur(14px)\">\n                <div class=\"upvote\">\n                    <span class=\"upvote-count\">763</span>\n                </div>\n            </div>\n        </div>\n    </div> \n    <br>\n    <p>Which one do you want to reveal?</p>","response":"arrowright","phase":"test","task":"choose","left_img":9,"left_upvote":686,"left_blur":6,"right_img":42,"right_upvote":763,"right_blur":14,"check":true,"trial_type":"html-keyboard-response","trial_index":18,"time_elapsed":54355,"internal_node_id":"0.0-7.0-1.1","subject_id":"6384cefbecdecb6ae3e3641b","study_id":"6437092920136b88d7967a4f","session_id":"64388a2cac3355841927a023"},{"rt":1551,"stimulus":"<div class=\"container\">\n        <div class=\"img-container\">\n            <div class=\"column\">\n                <img src=imgs/img-9.png class=\"img\" style=\"filter: blur(6px)\">\n                <div class=\"upvote\">\n                    <span class=\"upvote-count\">686</span>\n                </div>\n            </div>\n            <div class=\"column\">\n                <img src=imgs/img-42.png class=\"img\">\n                <div class=\"upvote\">\n                    <span class=\"upvote-count\">763</span>\n                </div>\n            </div>\n        </div>\n    </div>   \n    <br>\n    <p>Press any key to continue.</p>","response":"enter","phase":"test","task":"reveal","trial_type":"html-keyboard-response","trial_index":19,"time_elapsed":55906,"internal_node_id":"0.0-7.0-2.1","subject_id":"6384cefbecdecb6ae3e3641b","study_id":"6437092920136b88d7967a4f","session_id":"64388a2cac3355841927a023"},{"rt":null,"stimulus":"\n          <p>Trial 3 of 21</p>\n        ","response":null,"phase":"test","trial_type":"html-keyboard-response","trial_index":20,"time_elapsed":56908,"internal_node_id":"0.0-7.0-0.2","subject_id":"6384cefbecdecb6ae3e3641b","study_id":"6437092920136b88d7967a4f","session_id":"64388a2cac3355841927a023"},{"rt":1334,"stimulus":"<div class=\"container\">\n        <div class=\"img-container\">\n            <div class=\"column\">\n                <img src=imgs/img-27.png class=\"img\" style=\"filter: blur(23px)\">\n                <div class=\"upvote\">\n                    <span class=\"upvote-count\">280</span>\n                </div>\n            </div>\n            <div class=\"column\">\n                <img src=imgs/img-17.png class=\"img\" style=\"filter: blur(44px)\">\n                <div class=\"upvote\">\n                    <span class=\"upvote-count\">836</span>\n                </div>\n            </div>\n        </div>\n    </div> \n    <br>\n    <p>Which one do you want to reveal?</p>","response":"arrowright","phase":"test","task":"choose","left_img":27,"left_upvote":280,"left_blur":23,"right_img":17,"right_upvote":836,"right_blur":44,"check":true,"trial_type":"html-keyboard-response","trial_index":21,"time_elapsed":58242,"internal_node_id":"0.0-7.0-1.2","subject_id":"6384cefbecdecb6ae3e3641b","study_id":"6437092920136b88d7967a4f","session_id":"64388a2cac3355841927a023"},{"rt":584,"stimulus":"<div class=\"container\">\n        <div class=\"img-container\">\n            <div class=\"column\">\n                <img src=imgs/img-27.png class=\"img\" style=\"filter: blur(23px)\">\n                <div class=\"upvote\">\n                    <span class=\"upvote-count\">280</span>\n                </div>\n            </div>\n            <div class=\"column\">\n                <img src=imgs/img-17.png class=\"img\">\n                <div class=\"upvote\">\n                    <span class=\"upvote-count\">836</span>\n                </div>\n            </div>\n        </div>\n    </div>   \n    <br>\n    <p>Press any key to continue.</p>","response":"enter","phase":"test","task":"reveal","trial_type":"html-keyboard-response","trial_index":22,"time_elapsed":58826,"internal_node_id":"0.0-7.0-2.2","subject_id":"6384cefbecdecb6ae3e3641b","study_id":"6437092920136b88d7967a4f","session_id":"64388a2cac3355841927a023"},{"rt":null,"stimulus":"\n          <p>Trial 4 of 21</p>\n        ","response":null,"phase":"test","trial_type":"html-keyboard-response","trial_index":23,"time_elapsed":59828,"internal_node_id":"0.0-7.0-0.3","subject_id":"6384cefbecdecb6ae3e3641b","study_id":"6437092920136b88d7967a4f","session_id":"64388a2cac3355841927a023"},{"rt":734,"stimulus":"<div class=\"container\">\n        <div class=\"img-container\">\n            <div class=\"column\">\n                <img src=imgs/img-31.png class=\"img\" style=\"filter: blur(15px)\">\n                <div class=\"upvote\">\n                    <span class=\"upvote-count\">241</span>\n                </div>\n            </div>\n            <div class=\"column\">\n                <img src=imgs/img-24.png class=\"img\" style=\"filter: blur(11px)\">\n                <div class=\"upvote\">\n                    <span class=\"upvote-count\">682</span>\n                </div>\n            </div>\n        </div>\n    </div> \n    <br>\n    <p>Which one do you want to reveal?</p>","response":"arrowleft","phase":"test","task":"choose","left_img":31,"left_upvote":241,"left_blur":15,"right_img":24,"right_upvote":682,"right_blur":11,"check":true,"trial_type":"html-keyboard-response","trial_index":24,"time_elapsed":60563,"internal_node_id":"0.0-7.0-1.3","subject_id":"6384cefbecdecb6ae3e3641b","study_id":"6437092920136b88d7967a4f","session_id":"64388a2cac3355841927a023"},{"rt":408,"stimulus":"<div class=\"container\">\n        <div class=\"img-container\">\n            <div class=\"column\">\n                <img src=imgs/img-31.png class=\"img\">\n                <div class=\"upvote\">\n                    <span class=\"upvote-count\">241</span>\n                </div>\n            </div>\n            <div class=\"column\">\n                <img src=imgs/img-24.png class=\"img\" style=\"filter: blur(11px)\">\n                <div class=\"upvote\">\n                    <span class=\"upvote-count\">682</span>\n                </div>\n            </div>\n        </div>\n    </div> \n    <br>\n    <p>Press any key to continue.</p>","response":"enter","phase":"test","task":"reveal","trial_type":"html-keyboard-response","trial_index":25,"time_elapsed":60971,"internal_node_id":"0.0-7.0-2.3","subject_id":"6384cefbecdecb6ae3e3641b","study_id":"6437092920136b88d7967a4f","session_id":"64388a2cac3355841927a023"},{"rt":null,"stimulus":"\n          <p>Trial 5 of 21</p>\n        ","response":null,"phase":"test","trial_type":"html-keyboard-response","trial_index":26,"time_elapsed":61971,"internal_node_id":"0.0-7.0-0.4","subject_id":"6384cefbecdecb6ae3e3641b","study_id":"6437092920136b88d7967a4f","session_id":"64388a2cac3355841927a023"},{"rt":743,"stimulus":"<div class=\"container\">\n        <div class=\"img-container\">\n            <div class=\"column\">\n                <img src=imgs/img-25.png class=\"img\" style=\"filter: blur(23px)\">\n                <div class=\"upvote\">\n                    <span class=\"upvote-count\">384</span>\n                </div>\n            </div>\n            <div class=\"column\">\n                <img src=imgs/img-12.png class=\"img\" style=\"filter: blur(18px)\">\n                <div class=\"upvote\">\n                    <span class=\"upvote-count\">1676</span>\n                </div>\n            </div>\n        </div>\n    </div> \n    <br>\n    <p>Which one do you want to reveal?</p>","response":"arrowleft","phase":"test","task":"choose","left_img":25,"left_upvote":384,"left_blur":23,"right_img":12,"right_upvote":1676,"right_blur":18,"check":true,"trial_type":"html-keyboard-response","trial_index":27,"time_elapsed":62715,"internal_node_id":"0.0-7.0-1.4","subject_id":"6384cefbecdecb6ae3e3641b","study_id":"6437092920136b88d7967a4f","session_id":"64388a2cac3355841927a023"},{"rt":952,"stimulus":"<div class=\"container\">\n        <div class=\"img-container\">\n            <div class=\"column\">\n                <img src=imgs/img-25.png class=\"img\">\n                <div class=\"upvote\">\n                    <span class=\"upvote-count\">384</span>\n                </div>\n            </div>\n            <div class=\"column\">\n                <img src=imgs/img-12.png class=\"img\" style=\"filter: blur(18px)\">\n                <div class=\"upvote\">\n                    <span class=\"upvote-count\">1676</span>\n                </div>\n            </div>\n        </div>\n    </div> \n    <br>\n    <p>Press any key to continue.</p>","response":"enter","phase":"test","task":"reveal","trial_type":"html-keyboard-response","trial_index":28,"time_elapsed":63667,"internal_node_id":"0.0-7.0-2.4","subject_id":"6384cefbecdecb6ae3e3641b","study_id":"6437092920136b88d7967a4f","session_id":"64388a2cac3355841927a023"},{"rt":null,"stimulus":"\n          <p>Trial 6 of 21</p>\n        ","response":null,"phase":"test","trial_type":"html-keyboard-response","trial_index":29,"time_elapsed":64667,"internal_node_id":"0.0-7.0-0.5","subject_id":"6384cefbecdecb6ae3e3641b","study_id":"6437092920136b88d7967a4f","session_id":"64388a2cac3355841927a023"},{"rt":903,"stimulus":"<div class=\"container\">\n        <div class=\"img-container\">\n            <div class=\"column\">\n                <img src=imgs/img-41.png class=\"img\" style=\"filter: blur(20px)\">\n                <div class=\"upvote\">\n                    <span class=\"upvote-count\">64</span>\n                </div>\n            </div>\n            <div class=\"column\">\n                <img src=imgs/img-7.png class=\"img\" style=\"filter: blur(24px)\">\n                <div class=\"upvote\">\n                    <span class=\"upvote-count\">1006</span>\n                </div>\n            </div>\n        </div>\n    </div> \n    <br>\n    <p>Which one do you want to reveal?</p>","response":"arrowleft","phase":"test","task":"choose","left_img":41,"left_upvote":64,"left_blur":20,"right_img":7,"right_upvote":1006,"right_blur":24,"check":true,"trial_type":"html-keyboard-response","trial_index":30,"time_elapsed":65571,"internal_node_id":"0.0-7.0-1.5","subject_id":"6384cefbecdecb6ae3e3641b","study_id":"6437092920136b88d7967a4f","session_id":"64388a2cac3355841927a023"},{"rt":423,"stimulus":"<div class=\"container\">\n        <div class=\"img-container\">\n            <div class=\"column\">\n                <img src=imgs/img-41.png class=\"img\">\n                <div class=\"upvote\">\n                    <span class=\"upvote-count\">64</span>\n                </div>\n            </div>\n            <div class=\"column\">\n                <img src=imgs/img-7.png class=\"img\" style=\"filter: blur(24px)\">\n                <div class=\"upvote\">\n                    <span class=\"upvote-count\">1006</span>\n                </div>\n            </div>\n        </div>\n    </div> \n    <br>\n    <p>Press any key to continue.</p>","response":"enter","phase":"test","task":"reveal","trial_type":"html-keyboard-response","trial_index":31,"time_elapsed":65995,"internal_node_id":"0.0-7.0-2.5","subject_id":"6384cefbecdecb6ae3e3641b","study_id":"6437092920136b88d7967a4f","session_id":"64388a2cac3355841927a023"},{"rt":null,"stimulus":"\n          <p>Trial 7 of 21</p>\n        ","response":null,"phase":"test","trial_type":"html-keyboard-response","trial_index":32,"time_elapsed":66996,"internal_node_id":"0.0-7.0-0.6","subject_id":"6384cefbecdecb6ae3e3641b","study_id":"6437092920136b88d7967a4f","session_id":"64388a2cac3355841927a023"},{"rt":1086,"stimulus":"<div class=\"container\">\n        <div class=\"img-container\">\n            <div class=\"column\">\n                <img src=imgs/img-6.png class=\"img\" style=\"filter: blur(15px)\">\n                <div class=\"upvote\">\n                    <span class=\"upvote-count\">1072</span>\n                </div>\n            </div>\n            <div class=\"column\">\n                <img src=imgs/img-21.png class=\"img\" style=\"filter: blur(9px)\">\n                <div class=\"upvote\">\n                    <span class=\"upvote-count\">510</span>\n                </div>\n            </div>\n        </div>\n    </div> \n    <br>\n    <p>Which one do you want to reveal?</p>","response":"arrowleft","phase":"test","task":"choose","left_img":6,"left_upvote":1072,"left_blur":15,"right_img":21,"right_upvote":510,"right_blur":9,"check":true,"trial_type":"html-keyboard-response","trial_index":33,"time_elapsed":68082,"internal_node_id":"0.0-7.0-1.6","subject_id":"6384cefbecdecb6ae3e3641b","study_id":"6437092920136b88d7967a4f","session_id":"64388a2cac3355841927a023"},{"rt":352,"stimulus":"<div class=\"container\">\n        <div class=\"img-container\">\n            <div class=\"column\">\n                <img src=imgs/img-6.png class=\"img\">\n                <div class=\"upvote\">\n                    <span class=\"upvote-count\">1072</span>\n                </div>\n            </div>\n            <div class=\"column\">\n                <img src=imgs/img-21.png class=\"img\" style=\"filter: blur(9px)\">\n                <div class=\"upvote\">\n                    <span class=\"upvote-count\">510</span>\n                </div>\n            </div>\n        </div>\n    </div> \n    <br>\n    <p>Press any key to continue.</p>","response":"enter","phase":"test","task":"reveal","trial_type":"html-keyboard-response","trial_index":34,"time_elapsed":68435,"internal_node_id":"0.0-7.0-2.6","subject_id":"6384cefbecdecb6ae3e3641b","study_id":"6437092920136b88d7967a4f","session_id":"64388a2cac3355841927a023"},{"rt":null,"stimulus":"\n          <p>Trial 8 of 21</p>\n        ","response":null,"phase":"test","trial_type":"html-keyboard-response","trial_index":35,"time_elapsed":69436,"internal_node_id":"0.0-7.0-0.7","subject_id":"6384cefbecdecb6ae3e3641b","study_id":"6437092920136b88d7967a4f","session_id":"64388a2cac3355841927a023"},{"rt":1078,"stimulus":"<div class=\"container\">\n        <div class=\"img-container\">\n            <div class=\"column\">\n                <img src=imgs/img-26.png class=\"img\" style=\"filter: blur(10px)\">\n                <div class=\"upvote\">\n                    <span class=\"upvote-count\">355</span>\n                </div>\n            </div>\n            <div class=\"column\">\n                <img src=imgs/img-22.png class=\"img\" style=\"filter: blur(4px)\">\n                <div class=\"upvote\">\n                    <span class=\"upvote-count\">499</span>\n                </div>\n            </div>\n        </div>\n    </div> \n    <br>\n    <p>Which one do you want to reveal?</p>","response":"arrowleft","phase":"test","task":"choose","left_img":26,"left_upvote":355,"left_blur":10,"right_img":22,"right_upvote":499,"right_blur":4,"check":true,"trial_type":"html-keyboard-response","trial_index":36,"time_elapsed":70515,"internal_node_id":"0.0-7.0-1.7","subject_id":"6384cefbecdecb6ae3e3641b","study_id":"6437092920136b88d7967a4f","session_id":"64388a2cac3355841927a023"},{"rt":376,"stimulus":"<div class=\"container\">\n        <div class=\"img-container\">\n            <div class=\"column\">\n                <img src=imgs/img-26.png class=\"img\">\n                <div class=\"upvote\">\n                    <span class=\"upvote-count\">355</span>\n                </div>\n            </div>\n            <div class=\"column\">\n                <img src=imgs/img-22.png class=\"img\" style=\"filter: blur(4px)\">\n                <div class=\"upvote\">\n                    <span class=\"upvote-count\">499</span>\n                </div>\n            </div>\n        </div>\n    </div> \n    <br>\n    <p>Press any key to continue.</p>","response":"enter","phase":"test","task":"reveal","trial_type":"html-keyboard-response","trial_index":37,"time_elapsed":70891,"internal_node_id":"0.0-7.0-2.7","subject_id":"6384cefbecdecb6ae3e3641b","study_id":"6437092920136b88d7967a4f","session_id":"64388a2cac3355841927a023"},{"rt":null,"stimulus":"\n          <p>Trial 9 of 21</p>\n        ","response":null,"phase":"test","trial_type":"html-keyboard-response","trial_index":38,"time_elapsed":71892,"internal_node_id":"0.0-7.0-0.8","subject_id":"6384cefbecdecb6ae3e3641b","study_id":"6437092920136b88d7967a4f","session_id":"64388a2cac3355841927a023"},{"rt":1510,"stimulus":"<div class=\"container\">\n        <div class=\"img-container\">\n            <div class=\"column\">\n                <img src=imgs/img-10.png class=\"img\" style=\"filter: blur(34px)\">\n                <div class=\"upvote\">\n                    <span class=\"upvote-count\">3817</span>\n                </div>\n            </div>\n            <div class=\"column\">\n                <img src=imgs/img-13.png class=\"img\" style=\"filter: blur(18px)\">\n                <div class=\"upvote\">\n                    <span class=\"upvote-count\">1416</span>\n                </div>\n            </div>\n        </div>\n    </div> \n    <br>\n    <p>Which one do you want to reveal?</p>","response":"arrowleft","phase":"test","task":"choose","left_img":10,"left_upvote":3817,"left_blur":34,"right_img":13,"right_upvote":1416,"right_blur":18,"check":true,"trial_type":"html-keyboard-response","trial_index":39,"time_elapsed":73402,"internal_node_id":"0.0-7.0-1.8","subject_id":"6384cefbecdecb6ae3e3641b","study_id":"6437092920136b88d7967a4f","session_id":"64388a2cac3355841927a023"},{"rt":1672,"stimulus":"<div class=\"container\">\n        <div class=\"img-container\">\n            <div class=\"column\">\n                <img src=imgs/img-10.png class=\"img\">\n                <div class=\"upvote\">\n                    <span class=\"upvote-count\">3817</span>\n                </div>\n            </div>\n            <div class=\"column\">\n                <img src=imgs/img-13.png class=\"img\" style=\"filter: blur(18px)\">\n                <div class=\"upvote\">\n                    <span class=\"upvote-count\">1416</span>\n                </div>\n            </div>\n        </div>\n    </div> \n    <br>\n    <p>Press any key to continue.</p>","response":"enter","phase":"test","task":"reveal","trial_type":"html-keyboard-response","trial_index":40,"time_elapsed":75075,"internal_node_id":"0.0-7.0-2.8","subject_id":"6384cefbecdecb6ae3e3641b","study_id":"6437092920136b88d7967a4f","session_id":"64388a2cac3355841927a023"},{"rt":null,"stimulus":"\n          <p>Trial 10 of 21</p>\n        ","response":null,"phase":"test","trial_type":"html-keyboard-response","trial_index":41,"time_elapsed":76076,"internal_node_id":"0.0-7.0-0.9","subject_id":"6384cefbecdecb6ae3e3641b","study_id":"6437092920136b88d7967a4f","session_id":"64388a2cac3355841927a023"},{"rt":1079,"stimulus":"<div class=\"container\">\n        <div class=\"img-container\">\n            <div class=\"column\">\n                <img src=imgs/img-3.png class=\"img\" style=\"filter: blur(24px)\">\n                <div class=\"upvote\">\n                    <span class=\"upvote-count\">1756</span>\n                </div>\n            </div>\n            <div class=\"column\">\n                <img src=imgs/img-30.png class=\"img\" style=\"filter: blur(44px)\">\n                <div class=\"upvote\">\n                    <span class=\"upvote-count\">206</span>\n                </div>\n            </div>\n        </div>\n    </div> \n    <br>\n    <p>Which one do you want to reveal?</p>","response":"arrowright","phase":"test","task":"choose","left_img":3,"left_upvote":1756,"left_blur":24,"right_img":30,"right_upvote":206,"right_blur":44,"check":true,"trial_type":"html-keyboard-response","trial_index":42,"time_elapsed":77155,"internal_node_id":"0.0-7.0-1.9","subject_id":"6384cefbecdecb6ae3e3641b","study_id":"6437092920136b88d7967a4f","session_id":"64388a2cac3355841927a023"},{"rt":1047,"stimulus":"<div class=\"container\">\n        <div class=\"img-container\">\n            <div class=\"column\">\n                <img src=imgs/img-3.png class=\"img\" style=\"filter: blur(24px)\">\n                <div class=\"upvote\">\n                    <span class=\"upvote-count\">1756</span>\n                </div>\n            </div>\n            <div class=\"column\">\n                <img src=imgs/img-30.png class=\"img\">\n                <div class=\"upvote\">\n                    <span class=\"upvote-count\">206</span>\n                </div>\n            </div>\n        </div>\n    </div>   \n    <br>\n    <p>Press any key to continue.</p>","response":"enter","phase":"test","task":"reveal","trial_type":"html-keyboard-response","trial_index":43,"time_elapsed":78203,"internal_node_id":"0.0-7.0-2.9","subject_id":"6384cefbecdecb6ae3e3641b","study_id":"6437092920136b88d7967a4f","session_id":"64388a2cac3355841927a023"},{"rt":null,"stimulus":"\n          <p>Trial 11 of 21</p>\n        ","response":null,"phase":"test","trial_type":"html-keyboard-response","trial_index":44,"time_elapsed":79204,"internal_node_id":"0.0-7.0-0.10","subject_id":"6384cefbecdecb6ae3e3641b","study_id":"6437092920136b88d7967a4f","session_id":"64388a2cac3355841927a023"},{"rt":774,"stimulus":"<div class=\"container\">\n        <div class=\"img-container\">\n            <div class=\"column\">\n                <img src=imgs/img-28.png class=\"img\" style=\"filter: blur(34px)\">\n                <div class=\"upvote\">\n                    <span class=\"upvote-count\">312</span>\n                </div>\n            </div>\n            <div class=\"column\">\n                <img src=imgs/img-15.png class=\"img\" style=\"filter: blur(18px)\">\n                <div class=\"upvote\">\n                    <span class=\"upvote-count\">875</span>\n                </div>\n            </div>\n        </div>\n    </div> \n    <br>\n    <p>Which one do you want to reveal?</p>","response":"arrowright","phase":"test","task":"choose","left_img":28,"left_upvote":312,"left_blur":34,"right_img":15,"right_upvote":875,"right_blur":18,"check":true,"trial_type":"html-keyboard-response","trial_index":45,"time_elapsed":79979,"internal_node_id":"0.0-7.0-1.10","subject_id":"6384cefbecdecb6ae3e3641b","study_id":"6437092920136b88d7967a4f","session_id":"64388a2cac3355841927a023"},{"rt":455,"stimulus":"<div class=\"container\">\n        <div class=\"img-container\">\n            <div class=\"column\">\n                <img src=imgs/img-28.png class=\"img\" style=\"filter: blur(34px)\">\n                <div class=\"upvote\">\n                    <span class=\"upvote-count\">312</span>\n                </div>\n            </div>\n            <div class=\"column\">\n                <img src=imgs/img-15.png class=\"img\">\n                <div class=\"upvote\">\n                    <span class=\"upvote-count\">875</span>\n                </div>\n            </div>\n        </div>\n    </div>   \n    <br>\n    <p>Press any key to continue.</p>","response":"enter","phase":"test","task":"reveal","trial_type":"html-keyboard-response","trial_index":46,"time_elapsed":80435,"internal_node_id":"0.0-7.0-2.10","subject_id":"6384cefbecdecb6ae3e3641b","study_id":"6437092920136b88d7967a4f","session_id":"64388a2cac3355841927a023"},{"rt":null,"stimulus":"\n          <p>Trial 12 of 21</p>\n        ","response":null,"phase":"test","trial_type":"html-keyboard-response","trial_index":47,"time_elapsed":81436,"internal_node_id":"0.0-7.0-0.11","subject_id":"6384cefbecdecb6ae3e3641b","study_id":"6437092920136b88d7967a4f","session_id":"64388a2cac3355841927a023"},{"rt":1494,"stimulus":"<div class=\"container\">\n        <div class=\"img-container\">\n            <div class=\"column\">\n                <img src=imgs/img-29.png class=\"img\" style=\"filter: blur(9px)\">\n                <div class=\"upvote\">\n                    <span class=\"upvote-count\">265</span>\n                </div>\n            </div>\n            <div class=\"column\">\n                <img src=imgs/img-32.png class=\"img\" style=\"filter: blur(25px)\">\n                <div class=\"upvote\">\n                    <span class=\"upvote-count\">171</span>\n                </div>\n            </div>\n        </div>\n    </div> \n    <br>\n    <p>Which one do you want to reveal?</p>","response":"arrowleft","phase":"test","task":"choose","left_img":29,"left_upvote":265,"left_blur":9,"right_img":32,"right_upvote":171,"right_blur":25,"check":true,"trial_type":"html-keyboard-response","trial_index":48,"time_elapsed":82931,"internal_node_id":"0.0-7.0-1.11","subject_id":"6384cefbecdecb6ae3e3641b","study_id":"6437092920136b88d7967a4f","session_id":"64388a2cac3355841927a023"},{"rt":392,"stimulus":"<div class=\"container\">\n        <div class=\"img-container\">\n            <div class=\"column\">\n                <img src=imgs/img-29.png class=\"img\">\n                <div class=\"upvote\">\n                    <span class=\"upvote-count\">265</span>\n                </div>\n            </div>\n            <div class=\"column\">\n                <img src=imgs/img-32.png class=\"img\" style=\"filter: blur(25px)\">\n                <div class=\"upvote\">\n                    <span class=\"upvote-count\">171</span>\n                </div>\n            </div>\n        </div>\n    </div> \n    <br>\n    <p>Press any key to continue.</p>","response":"enter","phase":"test","task":"reveal","trial_type":"html-keyboard-response","trial_index":49,"time_elapsed":83323,"internal_node_id":"0.0-7.0-2.11","subject_id":"6384cefbecdecb6ae3e3641b","study_id":"6437092920136b88d7967a4f","session_id":"64388a2cac3355841927a023"},{"rt":null,"stimulus":"\n          <p>Trial 13 of 21</p>\n        ","response":null,"phase":"test","trial_type":"html-keyboard-response","trial_index":50,"time_elapsed":84324,"internal_node_id":"0.0-7.0-0.12","subject_id":"6384cefbecdecb6ae3e3641b","study_id":"6437092920136b88d7967a4f","session_id":"64388a2cac3355841927a023"},{"rt":1030,"stimulus":"<div class=\"container\">\n        <div class=\"img-container\">\n            <div class=\"column\">\n                <img src=imgs/img-23.png class=\"img\" style=\"filter: blur(15px)\">\n                <div class=\"upvote\">\n                    <span class=\"upvote-count\">394</span>\n                </div>\n            </div>\n            <div class=\"column\">\n                <img src=imgs/img-36.png class=\"img\" style=\"filter: blur(35px)\">\n                <div class=\"upvote\">\n                    <span class=\"upvote-count\">105</span>\n                </div>\n            </div>\n        </div>\n    </div> \n    <br>\n    <p>Which one do you want to reveal?</p>","response":"arrowright","phase":"test","task":"choose","left_img":23,"left_upvote":394,"left_blur":15,"right_img":36,"right_upvote":105,"right_blur":35,"check":true,"trial_type":"html-keyboard-response","trial_index":51,"time_elapsed":85354,"internal_node_id":"0.0-7.0-1.12","subject_id":"6384cefbecdecb6ae3e3641b","study_id":"6437092920136b88d7967a4f","session_id":"64388a2cac3355841927a023"},{"rt":944,"stimulus":"<div class=\"container\">\n        <div class=\"img-container\">\n            <div class=\"column\">\n                <img src=imgs/img-23.png class=\"img\" style=\"filter: blur(15px)\">\n                <div class=\"upvote\">\n                    <span class=\"upvote-count\">394</span>\n                </div>\n            </div>\n            <div class=\"column\">\n                <img src=imgs/img-36.png class=\"img\">\n                <div class=\"upvote\">\n                    <span class=\"upvote-count\">105</span>\n                </div>\n            </div>\n        </div>\n    </div>   \n    <br>\n    <p>Press any key to continue.</p>","response":"enter","phase":"test","task":"reveal","trial_type":"html-keyboard-response","trial_index":52,"time_elapsed":86299,"internal_node_id":"0.0-7.0-2.12","subject_id":"6384cefbecdecb6ae3e3641b","study_id":"6437092920136b88d7967a4f","session_id":"64388a2cac3355841927a023"},{"rt":null,"stimulus":"\n          <p>Trial 14 of 21</p>\n        ","response":null,"phase":"test","trial_type":"html-keyboard-response","trial_index":53,"time_elapsed":87300,"internal_node_id":"0.0-7.0-0.13","subject_id":"6384cefbecdecb6ae3e3641b","study_id":"6437092920136b88d7967a4f","session_id":"64388a2cac3355841927a023"},{"rt":1022,"stimulus":"<div class=\"container\">\n        <div class=\"img-container\">\n            <div class=\"column\">\n                <img src=imgs/img-34.png class=\"img\" style=\"filter: blur(30px)\">\n                <div class=\"upvote\">\n                    <span class=\"upvote-count\">124</span>\n                </div>\n            </div>\n            <div class=\"column\">\n                <img src=imgs/img-18.png class=\"img\" style=\"filter: blur(16px)\">\n                <div class=\"upvote\">\n                    <span class=\"upvote-count\">743</span>\n                </div>\n            </div>\n        </div>\n    </div> \n    <br>\n    <p>Which one do you want to reveal?</p>","response":"arrowleft","phase":"test","task":"choose","left_img":34,"left_upvote":124,"left_blur":30,"right_img":18,"right_upvote":743,"right_blur":16,"check":true,"trial_type":"html-keyboard-response","trial_index":54,"time_elapsed":88323,"internal_node_id":"0.0-7.0-1.13","subject_id":"6384cefbecdecb6ae3e3641b","study_id":"6437092920136b88d7967a4f","session_id":"64388a2cac3355841927a023"},{"rt":959,"stimulus":"<div class=\"container\">\n        <div class=\"img-container\">\n            <div class=\"column\">\n                <img src=imgs/img-34.png class=\"img\">\n                <div class=\"upvote\">\n                    <span class=\"upvote-count\">124</span>\n                </div>\n            </div>\n            <div class=\"column\">\n                <img src=imgs/img-18.png class=\"img\" style=\"filter: blur(16px)\">\n                <div class=\"upvote\">\n                    <span class=\"upvote-count\">743</span>\n                </div>\n            </div>\n        </div>\n    </div> \n    <br>\n    <p>Press any key to continue.</p>","response":"enter","phase":"test","task":"reveal","trial_type":"html-keyboard-response","trial_index":55,"time_elapsed":89283,"internal_node_id":"0.0-7.0-2.13","subject_id":"6384cefbecdecb6ae3e3641b","study_id":"6437092920136b88d7967a4f","session_id":"64388a2cac3355841927a023"},{"rt":null,"stimulus":"\n          <p>Trial 15 of 21</p>\n        ","response":null,"phase":"test","trial_type":"html-keyboard-response","trial_index":56,"time_elapsed":90284,"internal_node_id":"0.0-7.0-0.14","subject_id":"6384cefbecdecb6ae3e3641b","study_id":"6437092920136b88d7967a4f","session_id":"64388a2cac3355841927a023"},{"rt":918,"stimulus":"<div class=\"container\">\n        <div class=\"img-container\">\n            <div class=\"column\">\n                <img src=imgs/img-35.png class=\"img\" style=\"filter: blur(25px)\">\n                <div class=\"upvote\">\n                    <span class=\"upvote-count\">114</span>\n                </div>\n            </div>\n            <div class=\"column\">\n                <img src=imgs/img-33.png class=\"img\" style=\"filter: blur(18px)\">\n                <div class=\"upvote\">\n                    <span class=\"upvote-count\">134</span>\n                </div>\n            </div>\n        </div>\n    </div> \n    <br>\n    <p>Which one do you want to reveal?</p>","response":"arrowright","phase":"test","task":"choose","left_img":35,"left_upvote":114,"left_blur":25,"right_img":33,"right_upvote":134,"right_blur":18,"check":true,"trial_type":"html-keyboard-response","trial_index":57,"time_elapsed":91202,"internal_node_id":"0.0-7.0-1.14","subject_id":"6384cefbecdecb6ae3e3641b","study_id":"6437092920136b88d7967a4f","session_id":"64388a2cac3355841927a023"},{"rt":1064,"stimulus":"<div class=\"container\">\n        <div class=\"img-container\">\n            <div class=\"column\">\n                <img src=imgs/img-35.png class=\"img\" style=\"filter: blur(25px)\">\n                <div class=\"upvote\">\n                    <span class=\"upvote-count\">114</span>\n                </div>\n            </div>\n            <div class=\"column\">\n                <img src=imgs/img-33.png class=\"img\">\n                <div class=\"upvote\">\n                    <span class=\"upvote-count\">134</span>\n                </div>\n            </div>\n        </div>\n    </div>   \n    <br>\n    <p>Press any key to continue.</p>","response":"enter","phase":"test","task":"reveal","trial_type":"html-keyboard-response","trial_index":58,"time_elapsed":92267,"internal_node_id":"0.0-7.0-2.14","subject_id":"6384cefbecdecb6ae3e3641b","study_id":"6437092920136b88d7967a4f","session_id":"64388a2cac3355841927a023"},{"rt":null,"stimulus":"\n          <p>Trial 16 of 21</p>\n        ","response":null,"phase":"test","trial_type":"html-keyboard-response","trial_index":59,"time_elapsed":93267,"internal_node_id":"0.0-7.0-0.15","subject_id":"6384cefbecdecb6ae3e3641b","study_id":"6437092920136b88d7967a4f","session_id":"64388a2cac3355841927a023"},{"rt":1359,"stimulus":"<div class=\"container\">\n        <div class=\"img-container\">\n            <div class=\"column\">\n                <img src=imgs/img-16.png class=\"img\" style=\"filter: blur(4px)\">\n                <div class=\"upvote\">\n                    <span class=\"upvote-count\">845</span>\n                </div>\n            </div>\n            <div class=\"column\">\n                <img src=imgs/img-39.png class=\"img\" style=\"filter: blur(5px)\">\n                <div class=\"upvote\">\n                    <span class=\"upvote-count\">70</span>\n                </div>\n            </div>\n        </div>\n    </div> \n    <br>\n    <p>Which one do you want to reveal?</p>","response":"arrowright","phase":"test","task":"choose","left_img":16,"left_upvote":845,"left_blur":4,"right_img":39,"right_upvote":70,"right_blur":5,"check":true,"trial_type":"html-keyboard-response","trial_index":60,"time_elapsed":94626,"internal_node_id":"0.0-7.0-1.15","subject_id":"6384cefbecdecb6ae3e3641b","study_id":"6437092920136b88d7967a4f","session_id":"64388a2cac3355841927a023"},{"rt":1048,"stimulus":"<div class=\"container\">\n        <div class=\"img-container\">\n            <div class=\"column\">\n                <img src=imgs/img-16.png class=\"img\" style=\"filter: blur(4px)\">\n                <div class=\"upvote\">\n                    <span class=\"upvote-count\">845</span>\n                </div>\n            </div>\n            <div class=\"column\">\n                <img src=imgs/img-39.png class=\"img\">\n                <div class=\"upvote\">\n                    <span class=\"upvote-count\">70</span>\n                </div>\n            </div>\n        </div>\n    </div>   \n    <br>\n    <p>Press any key to continue.</p>","response":"enter","phase":"test","task":"reveal","trial_type":"html-keyboard-response","trial_index":61,"time_elapsed":95675,"internal_node_id":"0.0-7.0-2.15","subject_id":"6384cefbecdecb6ae3e3641b","study_id":"6437092920136b88d7967a4f","session_id":"64388a2cac3355841927a023"},{"rt":null,"stimulus":"\n          <p>Trial 17 of 21</p>\n        ","response":null,"phase":"test","trial_type":"html-keyboard-response","trial_index":62,"time_elapsed":96676,"internal_node_id":"0.0-7.0-0.16","subject_id":"6384cefbecdecb6ae3e3641b","study_id":"6437092920136b88d7967a4f","session_id":"64388a2cac3355841927a023"},{"rt":1078,"stimulus":"<div class=\"container\">\n        <div class=\"img-container\">\n            <div class=\"column\">\n                <img src=imgs/img-1.png class=\"img\" style=\"filter: blur(40px)\">\n                <div class=\"upvote\">\n                    <span class=\"upvote-count\">2059</span>\n                </div>\n            </div>\n            <div class=\"column\">\n                <img src=imgs/img-5.png class=\"img\" style=\"filter: blur(20px)\">\n                <div class=\"upvote\">\n                    <span class=\"upvote-count\">1302</span>\n                </div>\n            </div>\n        </div>\n    </div> \n    <br>\n    <p>Which one do you want to reveal?</p>","response":"arrowleft","phase":"test","task":"choose","left_img":1,"left_upvote":2059,"left_blur":40,"right_img":5,"right_upvote":1302,"right_blur":20,"check":true,"trial_type":"html-keyboard-response","trial_index":63,"time_elapsed":97754,"internal_node_id":"0.0-7.0-1.16","subject_id":"6384cefbecdecb6ae3e3641b","study_id":"6437092920136b88d7967a4f","session_id":"64388a2cac3355841927a023"},{"rt":1848,"stimulus":"<div class=\"container\">\n        <div class=\"img-container\">\n            <div class=\"column\">\n                <img src=imgs/img-1.png class=\"img\">\n                <div class=\"upvote\">\n                    <span class=\"upvote-count\">2059</span>\n                </div>\n            </div>\n            <div class=\"column\">\n                <img src=imgs/img-5.png class=\"img\" style=\"filter: blur(20px)\">\n                <div class=\"upvote\">\n                    <span class=\"upvote-count\">1302</span>\n                </div>\n            </div>\n        </div>\n    </div> \n    <br>\n    <p>Press any key to continue.</p>","response":"enter","phase":"test","task":"reveal","trial_type":"html-keyboard-response","trial_index":64,"time_elapsed":99603,"internal_node_id":"0.0-7.0-2.16","subject_id":"6384cefbecdecb6ae3e3641b","study_id":"6437092920136b88d7967a4f","session_id":"64388a2cac3355841927a023"},{"rt":null,"stimulus":"\n          <p>Trial 18 of 21</p>\n        ","response":null,"phase":"test","trial_type":"html-keyboard-response","trial_index":65,"time_elapsed":100604,"internal_node_id":"0.0-7.0-0.17","subject_id":"6384cefbecdecb6ae3e3641b","study_id":"6437092920136b88d7967a4f","session_id":"64388a2cac3355841927a023"},{"rt":1886,"stimulus":"<div class=\"container\">\n        <div class=\"img-container\">\n            <div class=\"column\">\n                <img src=imgs/img-19.png class=\"img\" style=\"filter: blur(46px)\">\n                <div class=\"upvote\">\n                    <span class=\"upvote-count\">600</span>\n                </div>\n            </div>\n            <div class=\"column\">\n                <img src=imgs/img-4.png class=\"img\" style=\"filter: blur(24px)\">\n                <div class=\"upvote\">\n                    <span class=\"upvote-count\">1617</span>\n                </div>\n            </div>\n        </div>\n    </div> \n    <br>\n    <p>Which one do you want to reveal?</p>","response":"arrowleft","phase":"test","task":"choose","left_img":19,"left_upvote":600,"left_blur":46,"right_img":4,"right_upvote":1617,"right_blur":24,"check":true,"trial_type":"html-keyboard-response","trial_index":66,"time_elapsed":102490,"internal_node_id":"0.0-7.0-1.17","subject_id":"6384cefbecdecb6ae3e3641b","study_id":"6437092920136b88d7967a4f","session_id":"64388a2cac3355841927a023"},{"rt":672,"stimulus":"<div class=\"container\">\n        <div class=\"img-container\">\n            <div class=\"column\">\n                <img src=imgs/img-19.png class=\"img\">\n                <div class=\"upvote\">\n                    <span class=\"upvote-count\">600</span>\n                </div>\n            </div>\n            <div class=\"column\">\n                <img src=imgs/img-4.png class=\"img\" style=\"filter: blur(24px)\">\n                <div class=\"upvote\">\n                    <span class=\"upvote-count\">1617</span>\n                </div>\n            </div>\n        </div>\n    </div> \n    <br>\n    <p>Press any key to continue.</p>","response":"enter","phase":"test","task":"reveal","trial_type":"html-keyboard-response","trial_index":67,"time_elapsed":103162,"internal_node_id":"0.0-7.0-2.17","subject_id":"6384cefbecdecb6ae3e3641b","study_id":"6437092920136b88d7967a4f","session_id":"64388a2cac3355841927a023"},{"rt":null,"stimulus":"\n          <p>Trial 19 of 21</p>\n        ","response":null,"phase":"test","trial_type":"html-keyboard-response","trial_index":68,"time_elapsed":104163,"internal_node_id":"0.0-7.0-0.18","subject_id":"6384cefbecdecb6ae3e3641b","study_id":"6437092920136b88d7967a4f","session_id":"64388a2cac3355841927a023"},{"rt":2366,"stimulus":"<div class=\"container\">\n        <div class=\"img-container\">\n            <div class=\"column\">\n                <img src=imgs/img-38.png class=\"img\" style=\"filter: blur(19px)\">\n                <div class=\"upvote\">\n                    <span class=\"upvote-count\">24</span>\n                </div>\n            </div>\n            <div class=\"column\">\n                <img src=imgs/img-37.png class=\"img\" style=\"filter: blur(4px)\">\n                <div class=\"upvote\">\n                    <span class=\"upvote-count\">99</span>\n                </div>\n            </div>\n        </div>\n    </div> \n    <br>\n    <p>Which one do you want to reveal?</p>","response":"arrowleft","phase":"test","task":"choose","left_img":38,"left_upvote":24,"left_blur":19,"right_img":37,"right_upvote":99,"right_blur":4,"check":true,"trial_type":"html-keyboard-response","trial_index":69,"time_elapsed":106530,"internal_node_id":"0.0-7.0-1.18","subject_id":"6384cefbecdecb6ae3e3641b","study_id":"6437092920136b88d7967a4f","session_id":"64388a2cac3355841927a023"},{"rt":1192,"stimulus":"<div class=\"container\">\n        <div class=\"img-container\">\n            <div class=\"column\">\n                <img src=imgs/img-38.png class=\"img\">\n                <div class=\"upvote\">\n                    <span class=\"upvote-count\">24</span>\n                </div>\n            </div>\n            <div class=\"column\">\n                <img src=imgs/img-37.png class=\"img\" style=\"filter: blur(4px)\">\n                <div class=\"upvote\">\n                    <span class=\"upvote-count\">99</span>\n                </div>\n            </div>\n        </div>\n    </div> \n    <br>\n    <p>Press any key to continue.</p>","response":"enter","phase":"test","task":"reveal","trial_type":"html-keyboard-response","trial_index":70,"time_elapsed":107723,"internal_node_id":"0.0-7.0-2.18","subject_id":"6384cefbecdecb6ae3e3641b","study_id":"6437092920136b88d7967a4f","session_id":"64388a2cac3355841927a023"},{"rt":null,"stimulus":"\n          <p>Trial 20 of 21</p>\n        ","response":null,"phase":"test","trial_type":"html-keyboard-response","trial_index":71,"time_elapsed":108723,"internal_node_id":"0.0-7.0-0.19","subject_id":"6384cefbecdecb6ae3e3641b","study_id":"6437092920136b88d7967a4f","session_id":"64388a2cac3355841927a023"},{"rt":2175,"stimulus":"<div class=\"container\">\n        <div class=\"img-container\">\n            <div class=\"column\">\n                <img src=imgs/img-11.png class=\"img\" style=\"filter: blur(9px)\">\n                <div class=\"upvote\">\n                    <span class=\"upvote-count\">3043</span>\n                </div>\n            </div>\n            <div class=\"column\">\n                <img src=imgs/img-20.png class=\"img\" style=\"filter: blur(11px)\">\n                <div class=\"upvote\">\n                    <span class=\"upvote-count\">558</span>\n                </div>\n            </div>\n        </div>\n    </div> \n    <br>\n    <p>Which one do you want to reveal?</p>","response":"arrowleft","phase":"test","task":"choose","left_img":11,"left_upvote":3043,"left_blur":9,"right_img":20,"right_upvote":558,"right_blur":11,"check":true,"trial_type":"html-keyboard-response","trial_index":72,"time_elapsed":110899,"internal_node_id":"0.0-7.0-1.19","subject_id":"6384cefbecdecb6ae3e3641b","study_id":"6437092920136b88d7967a4f","session_id":"64388a2cac3355841927a023"},{"rt":2007,"stimulus":"<div class=\"container\">\n        <div class=\"img-container\">\n            <div class=\"column\">\n                <img src=imgs/img-11.png class=\"img\">\n                <div class=\"upvote\">\n                    <span class=\"upvote-count\">3043</span>\n                </div>\n            </div>\n            <div class=\"column\">\n                <img src=imgs/img-20.png class=\"img\" style=\"filter: blur(11px)\">\n                <div class=\"upvote\">\n                    <span class=\"upvote-count\">558</span>\n                </div>\n            </div>\n        </div>\n    </div> \n    <br>\n    <p>Press any key to continue.</p>","response":"enter","phase":"test","task":"reveal","trial_type":"html-keyboard-response","trial_index":73,"time_elapsed":112906,"internal_node_id":"0.0-7.0-2.19","subject_id":"6384cefbecdecb6ae3e3641b","study_id":"6437092920136b88d7967a4f","session_id":"64388a2cac3355841927a023"},{"rt":null,"stimulus":"\n          <p>Trial 21 of 21</p>\n        ","response":null,"phase":"test","trial_type":"html-keyboard-response","trial_index":74,"time_elapsed":113907,"internal_node_id":"0.0-7.0-0.20","subject_id":"6384cefbecdecb6ae3e3641b","study_id":"6437092920136b88d7967a4f","session_id":"64388a2cac3355841927a023"},{"rt":1663,"stimulus":"<div class=\"container\">\n        <div class=\"img-container\">\n            <div class=\"column\">\n                <img src=imgs/img-14.png class=\"img\" style=\"filter: blur(47px)\">\n                <div class=\"upvote\">\n                    <span class=\"upvote-count\">656</span>\n                </div>\n            </div>\n            <div class=\"column\">\n                <img src=imgs/img-8.png class=\"img\" style=\"filter: blur(25px)\">\n                <div class=\"upvote\">\n                    <span class=\"upvote-count\">976</span>\n                </div>\n            </div>\n        </div>\n    </div> \n    <br>\n    <p>Which one do you want to reveal?</p>","response":"arrowleft","phase":"test","task":"choose","left_img":14,"left_upvote":656,"left_blur":47,"right_img":8,"right_upvote":976,"right_blur":25,"check":true,"trial_type":"html-keyboard-response","trial_index":75,"time_elapsed":115570,"internal_node_id":"0.0-7.0-1.20","subject_id":"6384cefbecdecb6ae3e3641b","study_id":"6437092920136b88d7967a4f","session_id":"64388a2cac3355841927a023"},{"rt":576,"stimulus":"<div class=\"container\">\n        <div class=\"img-container\">\n            <div class=\"column\">\n                <img src=imgs/img-14.png class=\"img\">\n                <div class=\"upvote\">\n                    <span class=\"upvote-count\">656</span>\n                </div>\n            </div>\n            <div class=\"column\">\n                <img src=imgs/img-8.png class=\"img\" style=\"filter: blur(25px)\">\n                <div class=\"upvote\">\n                    <span class=\"upvote-count\">976</span>\n                </div>\n            </div>\n        </div>\n    </div> \n    <br>\n    <p>Press any key to continue.</p>","response":"enter","phase":"test","task":"reveal","trial_type":"html-keyboard-response","trial_index":76,"time_elapsed":116146,"internal_node_id":"0.0-7.0-2.20","subject_id":"6384cefbecdecb6ae3e3641b","study_id":"6437092920136b88d7967a4f","session_id":"64388a2cac3355841927a023"}]