[{"success":true,"timeout":false,"failed_images":[],"failed_audio":[],"failed_video":[],"trial_type":"preload","trial_index":0,"time_elapsed":4167,"internal_node_id":"0.0-0.0","subject_id":"63d79fd67215cf20b76164b5","study_id":"6437092920136b88d7967a4f","session_id":"64388a4260ea3af4346d5536"},{"rt":3700,"stimulus":"<p>Welcome to the experiment</p><br><p>Press any key to begin.</p>","response":" ","trial_type":"html-keyboard-response","trial_index":1,"time_elapsed":7867,"internal_node_id":"0.0-1.0","subject_id":"63d79fd67215cf20b76164b5","study_id":"6437092920136b88d7967a4f","session_id":"64388a4260ea3af4346d5536"},{"rt":null,"stimulus":"\n        <p>In each trial, you will see two different images sourced from a popular social platform.</p>\n        <p>Each image will have an upvote count above it.</p>\n        <p>An upvote is a like given by users of the platform and helps promote quality content and discussion on the platform.</p>\n        <p>A higher upvote count means more people like the post and recommend it to other users.</p>\n        <br>\n        <p>Press any key to continue.</p>\n      ","response":null,"trial_type":"html-keyboard-response","trial_index":2,"time_elapsed":9884,"internal_node_id":"0.0-2.0-0.0","subject_id":"63d79fd67215cf20b76164b5","study_id":"6437092920136b88d7967a4f","session_id":"64388a4260ea3af4346d5536"},{"rt":11600,"stimulus":"\n        <p>In each trial, you will see two different images sourced from a popular social platform.</p>\n        <p>Each image will have an upvote count above it.</p>\n        <p>An upvote is a like given by users of the platform and helps promote quality content and discussion on the platform.</p>\n        <p>A higher upvote count means more people like the post and recommend it to other users.</p>\n        <br>\n        <p>Press any key to continue.</p>\n      ","response":" ","trial_type":"html-keyboard-response","trial_index":3,"time_elapsed":21484,"internal_node_id":"0.0-2.0-1.0","subject_id":"63d79fd67215cf20b76164b5","study_id":"6437092920136b88d7967a4f","session_id":"64388a4260ea3af4346d5536"},{"rt":null,"stimulus":"\n        <p>At the start of every trial, both images will be blurred.</p>\n        <p>The image you select will unblur itself, and the other one will stay the same.</p>\n        <p>Please take some time to consider both images and their upvote counts. If you respond too fast, you will not see the image.</p>\n        <br>\n        <p>Press any key to continue.</p>\n      ","response":null,"trial_type":"html-keyboard-response","trial_index":4,"time_elapsed":23484,"internal_node_id":"0.0-2.0-2.0","subject_id":"63d79fd67215cf20b76164b5","study_id":"6437092920136b88d7967a4f","session_id":"64388a4260ea3af4346d5536"},{"rt":10384,"stimulus":"\n        <p>At the start of every trial, both images will be blurred.</p>\n        <p>The image you select will unblur itself, and the other one will stay the same.</p>\n        <p>Please take some time to consider both images and their upvote counts. If you respond too fast, you will not see the image.</p>\n        <br>\n        <p>Press any key to continue.</p>\n      ","response":" ","trial_type":"html-keyboard-response","trial_index":5,"time_elapsed":33884,"internal_node_id":"0.0-2.0-3.0","subject_id":"63d79fd67215cf20b76164b5","study_id":"6437092920136b88d7967a4f","session_id":"64388a4260ea3af4346d5536"},{"rt":null,"stimulus":"\n        <p>We will now go through 2 practice trials.</p>\n        <p>Press “←” on your keyboard to select the left image or “→” to select the right image.</p>\n        <br>\n        <p>On the next slide, you will see the images.</p>\n        <p>Press any key to continue.</p>\n      ","response":null,"trial_type":"html-keyboard-response","trial_index":6,"time_elapsed":35884,"internal_node_id":"0.0-2.0-4.0","subject_id":"63d79fd67215cf20b76164b5","study_id":"6437092920136b88d7967a4f","session_id":"64388a4260ea3af4346d5536"},{"rt":4483,"stimulus":"\n        <p>We will now go through 2 practice trials.</p>\n        <p>Press “←” on your keyboard to select the left image or “→” to select the right image.</p>\n        <br>\n        <p>On the next slide, you will see the images.</p>\n        <p>Press any key to continue.</p>\n      ","response":"arrowup","trial_type":"html-keyboard-response","trial_index":7,"time_elapsed":40351,"internal_node_id":"0.0-2.0-5.0","subject_id":"63d79fd67215cf20b76164b5","study_id":"6437092920136b88d7967a4f","session_id":"64388a4260ea3af4346d5536"},{"rt":2667,"stimulus":"<div class=\"container\">\n        <div class=\"img-container\">\n            <div class=\"column\">\n                <img src=imgs/img-prac-1.jpg class=\"img\" style=\"filter: blur(40px)\">\n                <div class=\"upvote\">\n                    <span class=\"upvote-count\">78</span>\n                </div>\n            </div>\n            <div class=\"column\">\n                <img src=imgs/img-prac-2.png class=\"img\" style=\"filter: blur(20px)\">\n                <div class=\"upvote\">\n                    <span class=\"upvote-count\">898</span>\n                </div>\n            </div>\n        </div>\n    </div> \n    <br>\n    <p>Which one do you want to reveal?</p>","response":"arrowleft","phase":"practice_1","task":"choose","left_upvote":78,"left_blur":40,"right_upvote":898,"right_blur":20,"check":true,"trial_type":"html-keyboard-response","trial_index":8,"time_elapsed":43051,"internal_node_id":"0.0-3.0-0.0","subject_id":"63d79fd67215cf20b76164b5","study_id":"6437092920136b88d7967a4f","session_id":"64388a4260ea3af4346d5536"},{"rt":2667,"stimulus":"<div class=\"container\">\n        <div class=\"img-container\">\n            <div class=\"column\">\n                <img src=imgs/img-prac-1.jpg class=\"img\">\n                <div class=\"upvote\">\n                    <span class=\"upvote-count\">78</span>\n                </div>\n            </div>\n            <div class=\"column\">\n                <img src=imgs/img-prac-2.png class=\"img\" style=\"filter: blur(20px)\">\n                <div class=\"upvote\">\n                    <span class=\"upvote-count\">898</span>\n                </div>\n            </div>\n        </div>\n    </div> \n    <br>\n    <p>Press any key to continue.</p>","response":"arrowleft","phase":"practice_1","task":"reveal","trial_type":"html-keyboard-response","trial_index":9,"time_elapsed":45718,"internal_node_id":"0.0-3.0-1.0","subject_id":"63d79fd67215cf20b76164b5","study_id":"6437092920136b88d7967a4f","session_id":"64388a4260ea3af4346d5536"},{"rt":2467,"stimulus":"\n        <p>Great! Now try that with a different pair of images.</p>\n        <br>\n        <p>Press any key to continue.</p>\n      ","response":"arrowleft","trial_type":"html-keyboard-response","trial_index":10,"time_elapsed":48184,"internal_node_id":"0.0-4.0-0.0","subject_id":"63d79fd67215cf20b76164b5","study_id":"6437092920136b88d7967a4f","session_id":"64388a4260ea3af4346d5536"},{"rt":1883,"stimulus":"<div class=\"container\">\n        <div class=\"img-container\">\n            <div class=\"column\">\n                <img src=imgs/img-prac-3.png class=\"img\" style=\"filter: blur(10px)\">\n                <div class=\"upvote\">\n                    <span class=\"upvote-count\">1149</span>\n                </div>\n            </div>\n            <div class=\"column\">\n                <img src=imgs/img-prac-4.png class=\"img\" style=\"filter: blur(15px)\">\n                <div class=\"upvote\">\n                    <span class=\"upvote-count\">1529</span>\n                </div>\n            </div>\n        </div>\n    </div> \n    <br>\n    <p>Which one do you want to reveal?</p>","response":"arrowright","phase":"practice_2","task":"choose","left_upvote":1149,"left_blur":10,"right_upvote":1529,"right_blur":15,"check":true,"trial_type":"html-keyboard-response","trial_index":11,"time_elapsed":50051,"internal_node_id":"0.0-5.0-0.0","subject_id":"63d79fd67215cf20b76164b5","study_id":"6437092920136b88d7967a4f","session_id":"64388a4260ea3af4346d5536"},{"rt":2767,"stimulus":"<div class=\"container\">\n        <div class=\"img-container\">\n            <div class=\"column\">\n                <img src=imgs/img-prac-3.png class=\"img\" style=\"filter: blur(10px)\">\n                <div class=\"upvote\">\n                    <span class=\"upvote-count\">1149</span>\n                </div>\n            </div>\n            <div class=\"column\">\n                <img src=imgs/img-prac-4.png class=\"img\">\n                <div class=\"upvote\">\n                    <span class=\"upvote-count\">1529</span>\n                </div>\n            </div>\n        </div>\n    </div>   \n    <br>\n    <p>Press any key to continue.</p>","response":"arrowright","phase":"practice_2","task":"reveal","trial_type":"html-keyboard-response","trial_index":12,"time_elapsed":52851,"internal_node_id":"0.0-5.0-1.0","subject_id":"63d79fd67215cf20b76164b5","study_id":"6437092920136b88d7967a4f","session_id":"64388a4260ea3af4346d5536"},{"rt":4600,"stimulus":"\n        <p>You have completed the tutorial!</p>\n        <p>The experiment will begin starting from the next slide.</p>\n        <p>There are 21 trials in the experiment.</p>\n        <br>\n        <p>Press any key to continue when you are ready.</p>\n      ","response":"arrowup","trial_type":"html-keyboard-response","trial_index":13,"time_elapsed":57434,"internal_node_id":"0.0-6.0","subject_id":"63d79fd67215cf20b76164b5","study_id":"6437092920136b88d7967a4f","session_id":"64388a4260ea3af4346d5536"},{"rt":null,"stimulus":"\n          <p>Trial 1 of 21</p>\n        ","response":null,"phase":"test","trial_type":"html-keyboard-response","trial_index":14,"time_elapsed":58435,"internal_node_id":"0.0-7.0-0.0","subject_id":"63d79fd67215cf20b76164b5","study_id":"6437092920136b88d7967a4f","session_id":"64388a4260ea3af4346d5536"},{"rt":2217,"stimulus":"<div class=\"container\">\n        <div class=\"img-container\">\n            <div class=\"column\">\n                <img src=imgs/img-28.png class=\"img\" style=\"filter: blur(21px)\">\n                <div class=\"upvote\">\n                    <span class=\"upvote-count\">312</span>\n                </div>\n            </div>\n            <div class=\"column\">\n                <img src=imgs/img-23.png class=\"img\" style=\"filter: blur(17px)\">\n                <div class=\"upvote\">\n                    <span class=\"upvote-count\">394</span>\n                </div>\n            </div>\n        </div>\n    </div> \n    <br>\n    <p>Which one do you want to reveal?</p>","response":"arrowleft","phase":"test","task":"choose","left_img":28,"left_upvote":312,"left_blur":21,"right_img":23,"right_upvote":394,"right_blur":17,"check":true,"trial_type":"html-keyboard-response","trial_index":15,"time_elapsed":60635,"internal_node_id":"0.0-7.0-1.0","subject_id":"63d79fd67215cf20b76164b5","study_id":"6437092920136b88d7967a4f","session_id":"64388a4260ea3af4346d5536"},{"rt":2200,"stimulus":"<div class=\"container\">\n        <div class=\"img-container\">\n            <div class=\"column\">\n                <img src=imgs/img-28.png class=\"img\">\n                <div class=\"upvote\">\n                    <span class=\"upvote-count\">312</span>\n                </div>\n            </div>\n            <div class=\"column\">\n                <img src=imgs/img-23.png class=\"img\" style=\"filter: blur(17px)\">\n                <div class=\"upvote\">\n                    <span class=\"upvote-count\">394</span>\n                </div>\n            </div>\n        </div>\n    </div> \n    <br>\n    <p>Press any key to continue.</p>","response":"arrowleft","phase":"test","task":"reveal","trial_type":"html-keyboard-response","trial_index":16,"time_elapsed":62851,"internal_node_id":"0.0-7.0-2.0","subject_id":"63d79fd67215cf20b76164b5","study_id":"6437092920136b88d7967a4f","session_id":"64388a4260ea3af4346d5536"},{"rt":null,"stimulus":"\n          <p>Trial 2 of 21</p>\n        ","response":null,"phase":"test","trial_type":"html-keyboard-response","trial_index":17,"time_elapsed":63851,"internal_node_id":"0.0-7.0-0.1","subject_id":"63d79fd67215cf20b76164b5","study_id":"6437092920136b88d7967a4f","session_id":"64388a4260ea3af4346d5536"},{"rt":2100,"stimulus":"<div class=\"container\">\n        <div class=\"img-container\">\n            <div class=\"column\">\n                <img src=imgs/img-14.png class=\"img\" style=\"filter: blur(34px)\">\n                <div class=\"upvote\">\n                    <span class=\"upvote-count\">656</span>\n                </div>\n            </div>\n            <div class=\"column\">\n                <img src=imgs/img-20.png class=\"img\" style=\"filter: blur(12px)\">\n                <div class=\"upvote\">\n                    <span class=\"upvote-count\">558</span>\n                </div>\n            </div>\n        </div>\n    </div> \n    <br>\n    <p>Which one do you want to reveal?</p>","response":"arrowright","phase":"test","task":"choose","left_img":14,"left_upvote":656,"left_blur":34,"right_img":20,"right_upvote":558,"right_blur":12,"check":true,"trial_type":"html-keyboard-response","trial_index":18,"time_elapsed":65951,"internal_node_id":"0.0-7.0-1.1","subject_id":"63d79fd67215cf20b76164b5","study_id":"6437092920136b88d7967a4f","session_id":"64388a4260ea3af4346d5536"},{"rt":2450,"stimulus":"<div class=\"container\">\n        <div class=\"img-container\">\n            <div class=\"column\">\n                <img src=imgs/img-14.png class=\"img\" style=\"filter: blur(34px)\">\n                <div class=\"upvote\">\n                    <span class=\"upvote-count\">656</span>\n                </div>\n            </div>\n            <div class=\"column\">\n                <img src=imgs/img-20.png class=\"img\">\n                <div class=\"upvote\">\n                    <span class=\"upvote-count\">558</span>\n                </div>\n            </div>\n        </div>\n    </div>   \n    <br>\n    <p>Press any key to continue.</p>","response":"arrowup","phase":"test","task":"reveal","trial_type":"html-keyboard-response","trial_index":19,"time_elapsed":68385,"internal_node_id":"0.0-7.0-2.1","subject_id":"63d79fd67215cf20b76164b5","study_id":"6437092920136b88d7967a4f","session_id":"64388a4260ea3af4346d5536"},{"rt":null,"stimulus":"\n          <p>Trial 3 of 21</p>\n        ","response":null,"phase":"test","trial_type":"html-keyboard-response","trial_index":20,"time_elapsed":69401,"internal_node_id":"0.0-7.0-0.2","subject_id":"63d79fd67215cf20b76164b5","study_id":"6437092920136b88d7967a4f","session_id":"64388a4260ea3af4346d5536"},{"rt":1033,"stimulus":"<div class=\"container\">\n        <div class=\"img-container\">\n            <div class=\"column\">\n                <img src=imgs/img-10.png class=\"img\" style=\"filter: blur(20px)\">\n                <div class=\"upvote\">\n                    <span class=\"upvote-count\">3817</span>\n                </div>\n            </div>\n            <div class=\"column\">\n                <img src=imgs/img-7.png class=\"img\" style=\"filter: blur(5px)\">\n                <div class=\"upvote\">\n                    <span class=\"upvote-count\">1006</span>\n                </div>\n            </div>\n        </div>\n    </div> \n    <br>\n    <p>Which one do you want to reveal?</p>","response":"arrowright","phase":"test","task":"choose","left_img":10,"left_upvote":3817,"left_blur":20,"right_img":7,"right_upvote":1006,"right_blur":5,"check":true,"trial_type":"html-keyboard-response","trial_index":21,"time_elapsed":70435,"internal_node_id":"0.0-7.0-1.2","subject_id":"63d79fd67215cf20b76164b5","study_id":"6437092920136b88d7967a4f","session_id":"64388a4260ea3af4346d5536"},{"rt":3150,"stimulus":"<div class=\"container\">\n        <div class=\"img-container\">\n            <div class=\"column\">\n                <img src=imgs/img-10.png class=\"img\" style=\"filter: blur(20px)\">\n                <div class=\"upvote\">\n                    <span class=\"upvote-count\">3817</span>\n                </div>\n            </div>\n            <div class=\"column\">\n                <img src=imgs/img-7.png class=\"img\">\n                <div class=\"upvote\">\n                    <span class=\"upvote-count\">1006</span>\n                </div>\n            </div>\n        </div>\n    </div>   \n    <br>\n    <p>Press any key to continue.</p>","response":"arrowup","phase":"test","task":"reveal","trial_type":"html-keyboard-response","trial_index":22,"time_elapsed":73585,"internal_node_id":"0.0-7.0-2.2","subject_id":"63d79fd67215cf20b76164b5","study_id":"6437092920136b88d7967a4f","session_id":"64388a4260ea3af4346d5536"},{"rt":null,"stimulus":"\n          <p>Trial 4 of 21</p>\n        ","response":null,"phase":"test","trial_type":"html-keyboard-response","trial_index":23,"time_elapsed":74585,"internal_node_id":"0.0-7.0-0.3","subject_id":"63d79fd67215cf20b76164b5","study_id":"6437092920136b88d7967a4f","session_id":"64388a4260ea3af4346d5536"},{"rt":2217,"stimulus":"<div class=\"container\">\n        <div class=\"img-container\">\n            <div class=\"column\">\n                <img src=imgs/img-24.png class=\"img\" style=\"filter: blur(22px)\">\n                <div class=\"upvote\">\n                    <span class=\"upvote-count\">682</span>\n                </div>\n            </div>\n            <div class=\"column\">\n                <img src=imgs/img-19.png class=\"img\" style=\"filter: blur(5px)\">\n                <div class=\"upvote\">\n                    <span class=\"upvote-count\">600</span>\n                </div>\n            </div>\n        </div>\n    </div> \n    <br>\n    <p>Which one do you want to reveal?</p>","response":"arrowright","phase":"test","task":"choose","left_img":24,"left_upvote":682,"left_blur":22,"right_img":19,"right_upvote":600,"right_blur":5,"check":true,"trial_type":"html-keyboard-response","trial_index":24,"time_elapsed":76802,"internal_node_id":"0.0-7.0-1.3","subject_id":"63d79fd67215cf20b76164b5","study_id":"6437092920136b88d7967a4f","session_id":"64388a4260ea3af4346d5536"},{"rt":1833,"stimulus":"<div class=\"container\">\n        <div class=\"img-container\">\n            <div class=\"column\">\n                <img src=imgs/img-24.png class=\"img\" style=\"filter: blur(22px)\">\n                <div class=\"upvote\">\n                    <span class=\"upvote-count\">682</span>\n                </div>\n            </div>\n            <div class=\"column\">\n                <img src=imgs/img-19.png class=\"img\">\n                <div class=\"upvote\">\n                    <span class=\"upvote-count\">600</span>\n                </div>\n            </div>\n        </div>\n    </div>   \n    <br>\n    <p>Press any key to continue.</p>","response":"arrowup","phase":"test","task":"reveal","trial_type":"html-keyboard-response","trial_index":25,"time_elapsed":78652,"internal_node_id":"0.0-7.0-2.3","subject_id":"63d79fd67215cf20b76164b5","study_id":"6437092920136b88d7967a4f","session_id":"64388a4260ea3af4346d5536"},{"rt":null,"stimulus":"\n          <p>Trial 5 of 21</p>\n        ","response":null,"phase":"test","trial_type":"html-keyboard-response","trial_index":26,"time_elapsed":79652,"internal_node_id":"0.0-7.0-0.4","subject_id":"63d79fd67215cf20b76164b5","study_id":"6437092920136b88d7967a4f","session_id":"64388a4260ea3af4346d5536"},{"rt":1983,"stimulus":"<div class=\"container\">\n        <div class=\"img-container\">\n            <div class=\"column\">\n                <img src=imgs/img-34.png class=\"img\" style=\"filter: blur(39px)\">\n                <div class=\"upvote\">\n                    <span class=\"upvote-count\">124</span>\n                </div>\n            </div>\n            <div class=\"column\">\n                <img src=imgs/img-36.png class=\"img\" style=\"filter: blur(16px)\">\n                <div class=\"upvote\">\n                    <span class=\"upvote-count\">105</span>\n                </div>\n            </div>\n        </div>\n    </div> \n    <br>\n    <p>Which one do you want to reveal?</p>","response":"arrowright","phase":"test","task":"choose","left_img":34,"left_upvote":124,"left_blur":39,"right_img":36,"right_upvote":105,"right_blur":16,"check":true,"trial_type":"html-keyboard-response","trial_index":27,"time_elapsed":81652,"internal_node_id":"0.0-7.0-1.4","subject_id":"63d79fd67215cf20b76164b5","study_id":"6437092920136b88d7967a4f","session_id":"64388a4260ea3af4346d5536"},{"rt":1433,"stimulus":"<div class=\"container\">\n        <div class=\"img-container\">\n            <div class=\"column\">\n                <img src=imgs/img-34.png class=\"img\" style=\"filter: blur(39px)\">\n                <div class=\"upvote\">\n                    <span class=\"upvote-count\">124</span>\n                </div>\n            </div>\n            <div class=\"column\">\n                <img src=imgs/img-36.png class=\"img\">\n                <div class=\"upvote\">\n                    <span class=\"upvote-count\">105</span>\n                </div>\n            </div>\n        </div>\n    </div>   \n    <br>\n    <p>Press any key to continue.</p>","response":"arrowup","phase":"test","task":"reveal","trial_type":"html-keyboard-response","trial_index":28,"time_elapsed":83068,"internal_node_id":"0.0-7.0-2.4","subject_id":"63d79fd67215cf20b76164b5","study_id":"6437092920136b88d7967a4f","session_id":"64388a4260ea3af4346d5536"},{"rt":null,"stimulus":"\n          <p>Trial 6 of 21</p>\n        ","response":null,"phase":"test","trial_type":"html-keyboard-response","trial_index":29,"time_elapsed":84068,"internal_node_id":"0.0-7.0-0.5","subject_id":"63d79fd67215cf20b76164b5","study_id":"6437092920136b88d7967a4f","session_id":"64388a4260ea3af4346d5536"},{"rt":1417,"stimulus":"<div class=\"container\">\n        <div class=\"img-container\">\n            <div class=\"column\">\n                <img src=imgs/img-22.png class=\"img\" style=\"filter: blur(11px)\">\n                <div class=\"upvote\">\n                    <span class=\"upvote-count\">499</span>\n                </div>\n            </div>\n            <div class=\"column\">\n                <img src=imgs/img-3.png class=\"img\" style=\"filter: blur(19px)\">\n                <div class=\"upvote\">\n                    <span class=\"upvote-count\">1756</span>\n                </div>\n            </div>\n        </div>\n    </div> \n    <br>\n    <p>Which one do you want to reveal?</p>","response":"arrowright","phase":"test","task":"choose","left_img":22,"left_upvote":499,"left_blur":11,"right_img":3,"right_upvote":1756,"right_blur":19,"check":true,"trial_type":"html-keyboard-response","trial_index":30,"time_elapsed":85502,"internal_node_id":"0.0-7.0-1.5","subject_id":"63d79fd67215cf20b76164b5","study_id":"6437092920136b88d7967a4f","session_id":"64388a4260ea3af4346d5536"},{"rt":2117,"stimulus":"<div class=\"container\">\n        <div class=\"img-container\">\n            <div class=\"column\">\n                <img src=imgs/img-22.png class=\"img\" style=\"filter: blur(11px)\">\n                <div class=\"upvote\">\n                    <span class=\"upvote-count\">499</span>\n                </div>\n            </div>\n            <div class=\"column\">\n                <img src=imgs/img-3.png class=\"img\">\n                <div class=\"upvote\">\n                    <span class=\"upvote-count\">1756</span>\n                </div>\n            </div>\n        </div>\n    </div>   \n    <br>\n    <p>Press any key to continue.</p>","response":"arrowup","phase":"test","task":"reveal","trial_type":"html-keyboard-response","trial_index":31,"time_elapsed":87602,"internal_node_id":"0.0-7.0-2.5","subject_id":"63d79fd67215cf20b76164b5","study_id":"6437092920136b88d7967a4f","session_id":"64388a4260ea3af4346d5536"},{"rt":null,"stimulus":"\n          <p>Trial 7 of 21</p>\n        ","response":null,"phase":"test","trial_type":"html-keyboard-response","trial_index":32,"time_elapsed":88602,"internal_node_id":"0.0-7.0-0.6","subject_id":"63d79fd67215cf20b76164b5","study_id":"6437092920136b88d7967a4f","session_id":"64388a4260ea3af4346d5536"},{"rt":983,"stimulus":"<div class=\"container\">\n        <div class=\"img-container\">\n            <div class=\"column\">\n                <img src=imgs/img-40.png class=\"img\" style=\"filter: blur(36px)\">\n                <div class=\"upvote\">\n                    <span class=\"upvote-count\">46</span>\n                </div>\n            </div>\n            <div class=\"column\">\n                <img src=imgs/img-4.png class=\"img\" style=\"filter: blur(19px)\">\n                <div class=\"upvote\">\n                    <span class=\"upvote-count\">1617</span>\n                </div>\n            </div>\n        </div>\n    </div> \n    <br>\n    <p>Which one do you want to reveal?</p>","response":"arrowleft","phase":"test","task":"choose","left_img":40,"left_upvote":46,"left_blur":36,"right_img":4,"right_upvote":1617,"right_blur":19,"check":true,"trial_type":"html-keyboard-response","trial_index":33,"time_elapsed":89585,"internal_node_id":"0.0-7.0-1.6","subject_id":"63d79fd67215cf20b76164b5","study_id":"6437092920136b88d7967a4f","session_id":"64388a4260ea3af4346d5536"},{"rt":1383,"stimulus":"<div class=\"container\">\n        <div class=\"img-container\">\n            <div class=\"column\">\n                <img src=imgs/img-40.png class=\"img\">\n                <div class=\"upvote\">\n                    <span class=\"upvote-count\">46</span>\n                </div>\n            </div>\n            <div class=\"column\">\n                <img src=imgs/img-4.png class=\"img\" style=\"filter: blur(19px)\">\n                <div class=\"upvote\">\n                    <span class=\"upvote-count\">1617</span>\n                </div>\n            </div>\n        </div>\n    </div> \n    <br>\n    <p>Press any key to continue.</p>","response":"arrowup","phase":"test","task":"reveal","trial_type":"html-keyboard-response","trial_index":34,"time_elapsed":91002,"internal_node_id":"0.0-7.0-2.6","subject_id":"63d79fd67215cf20b76164b5","study_id":"6437092920136b88d7967a4f","session_id":"64388a4260ea3af4346d5536"},{"rt":null,"stimulus":"\n          <p>Trial 8 of 21</p>\n        ","response":null,"phase":"test","trial_type":"html-keyboard-response","trial_index":35,"time_elapsed":92002,"internal_node_id":"0.0-7.0-0.7","subject_id":"63d79fd67215cf20b76164b5","study_id":"6437092920136b88d7967a4f","session_id":"64388a4260ea3af4346d5536"},{"rt":1400,"stimulus":"<div class=\"container\">\n        <div class=\"img-container\">\n            <div class=\"column\">\n                <img src=imgs/img-41.png class=\"img\" style=\"filter: blur(17px)\">\n                <div class=\"upvote\">\n                    <span class=\"upvote-count\">64</span>\n                </div>\n            </div>\n            <div class=\"column\">\n                <img src=imgs/img-37.png class=\"img\" style=\"filter: blur(15px)\">\n                <div class=\"upvote\">\n                    <span class=\"upvote-count\">99</span>\n                </div>\n            </div>\n        </div>\n    </div> \n    <br>\n    <p>Which one do you want to reveal?</p>","response":"arrowleft","phase":"test","task":"choose","left_img":41,"left_upvote":64,"left_blur":17,"right_img":37,"right_upvote":99,"right_blur":15,"check":true,"trial_type":"html-keyboard-response","trial_index":36,"time_elapsed":93385,"internal_node_id":"0.0-7.0-1.7","subject_id":"63d79fd67215cf20b76164b5","study_id":"6437092920136b88d7967a4f","session_id":"64388a4260ea3af4346d5536"},{"rt":1367,"stimulus":"<div class=\"container\">\n        <div class=\"img-container\">\n            <div class=\"column\">\n                <img src=imgs/img-41.png class=\"img\">\n                <div class=\"upvote\">\n                    <span class=\"upvote-count\">64</span>\n                </div>\n            </div>\n            <div class=\"column\">\n                <img src=imgs/img-37.png class=\"img\" style=\"filter: blur(15px)\">\n                <div class=\"upvote\">\n                    <span class=\"upvote-count\">99</span>\n                </div>\n            </div>\n        </div>\n    </div> \n    <br>\n    <p>Press any key to continue.</p>","response":"arrowup","phase":"test","task":"reveal","trial_type":"html-keyboard-response","trial_index":37,"time_elapsed":94769,"internal_node_id":"0.0-7.0-2.7","subject_id":"63d79fd67215cf20b76164b5","study_id":"6437092920136b88d7967a4f","session_id":"64388a4260ea3af4346d5536"},{"rt":null,"stimulus":"\n          <p>Trial 9 of 21</p>\n        ","response":null,"phase":"test","trial_type":"html-keyboard-response","trial_index":38,"time_elapsed":95769,"internal_node_id":"0.0-7.0-0.8","subject_id":"63d79fd67215cf20b76164b5","study_id":"6437092920136b88d7967a4f","session_id":"64388a4260ea3af4346d5536"},{"rt":1033,"stimulus":"<div class=\"container\">\n        <div class=\"img-container\">\n            <div class=\"column\">\n                <img src=imgs/img-26.png class=\"img\" style=\"filter: blur(23px)\">\n                <div class=\"upvote\">\n                    <span class=\"upvote-count\">355</span>\n                </div>\n            </div>\n            <div class=\"column\">\n                <img src=imgs/img-12.png class=\"img\" style=\"filter: blur(25px)\">\n                <div class=\"upvote\">\n                    <span class=\"upvote-count\">1676</span>\n                </div>\n            </div>\n        </div>\n    </div> \n    <br>\n    <p>Which one do you want to reveal?</p>","response":"arrowright","phase":"test","task":"choose","left_img":26,"left_upvote":355,"left_blur":23,"right_img":12,"right_upvote":1676,"right_blur":25,"check":true,"trial_type":"html-keyboard-response","trial_index":39,"time_elapsed":96802,"internal_node_id":"0.0-7.0-1.8","subject_id":"63d79fd67215cf20b76164b5","study_id":"6437092920136b88d7967a4f","session_id":"64388a4260ea3af4346d5536"},{"rt":1133,"stimulus":"<div class=\"container\">\n        <div class=\"img-container\">\n            <div class=\"column\">\n                <img src=imgs/img-26.png class=\"img\" style=\"filter: blur(23px)\">\n                <div class=\"upvote\">\n                    <span class=\"upvote-count\">355</span>\n                </div>\n            </div>\n            <div class=\"column\">\n                <img src=imgs/img-12.png class=\"img\">\n                <div class=\"upvote\">\n                    <span class=\"upvote-count\">1676</span>\n                </div>\n            </div>\n        </div>\n    </div>   \n    <br>\n    <p>Press any key to continue.</p>","response":"arrowup","phase":"test","task":"reveal","trial_type":"html-keyboard-response","trial_index":40,"time_elapsed":97935,"internal_node_id":"0.0-7.0-2.8","subject_id":"63d79fd67215cf20b76164b5","study_id":"6437092920136b88d7967a4f","session_id":"64388a4260ea3af4346d5536"},{"rt":null,"stimulus":"\n          <p>Trial 10 of 21</p>\n        ","response":null,"phase":"test","trial_type":"html-keyboard-response","trial_index":41,"time_elapsed":98935,"internal_node_id":"0.0-7.0-0.9","subject_id":"63d79fd67215cf20b76164b5","study_id":"6437092920136b88d7967a4f","session_id":"64388a4260ea3af4346d5536"},{"rt":1033,"stimulus":"<div class=\"container\">\n        <div class=\"img-container\">\n            <div class=\"column\">\n                <img src=imgs/img-16.png class=\"img\" style=\"filter: blur(35px)\">\n                <div class=\"upvote\">\n                    <span class=\"upvote-count\">845</span>\n                </div>\n            </div>\n            <div class=\"column\">\n                <img src=imgs/img-1.png class=\"img\" style=\"filter: blur(17px)\">\n                <div class=\"upvote\">\n                    <span class=\"upvote-count\">2059</span>\n                </div>\n            </div>\n        </div>\n    </div> \n    <br>\n    <p>Which one do you want to reveal?</p>","response":"arrowright","phase":"test","task":"choose","left_img":16,"left_upvote":845,"left_blur":35,"right_img":1,"right_upvote":2059,"right_blur":17,"check":true,"trial_type":"html-keyboard-response","trial_index":42,"time_elapsed":99969,"internal_node_id":"0.0-7.0-1.9","subject_id":"63d79fd67215cf20b76164b5","study_id":"6437092920136b88d7967a4f","session_id":"64388a4260ea3af4346d5536"},{"rt":1850,"stimulus":"<div class=\"container\">\n        <div class=\"img-container\">\n            <div class=\"column\">\n                <img src=imgs/img-16.png class=\"img\" style=\"filter: blur(35px)\">\n                <div class=\"upvote\">\n                    <span class=\"upvote-count\">845</span>\n                </div>\n            </div>\n            <div class=\"column\">\n                <img src=imgs/img-1.png class=\"img\">\n                <div class=\"upvote\">\n                    <span class=\"upvote-count\">2059</span>\n                </div>\n            </div>\n        </div>\n    </div>   \n    <br>\n    <p>Press any key to continue.</p>","response":"arrowup","phase":"test","task":"reveal","trial_type":"html-keyboard-response","trial_index":43,"time_elapsed":101819,"internal_node_id":"0.0-7.0-2.9","subject_id":"63d79fd67215cf20b76164b5","study_id":"6437092920136b88d7967a4f","session_id":"64388a4260ea3af4346d5536"},{"rt":null,"stimulus":"\n          <p>Trial 11 of 21</p>\n        ","response":null,"phase":"test","trial_type":"html-keyboard-response","trial_index":44,"time_elapsed":102819,"internal_node_id":"0.0-7.0-0.10","subject_id":"63d79fd67215cf20b76164b5","study_id":"6437092920136b88d7967a4f","session_id":"64388a4260ea3af4346d5536"},{"rt":2217,"stimulus":"<div class=\"container\">\n        <div class=\"img-container\">\n            <div class=\"column\">\n                <img src=imgs/img-27.png class=\"img\" style=\"filter: blur(26px)\">\n                <div class=\"upvote\">\n                    <span class=\"upvote-count\">280</span>\n                </div>\n            </div>\n            <div class=\"column\">\n                <img src=imgs/img-42.png class=\"img\" style=\"filter: blur(13px)\">\n                <div class=\"upvote\">\n                    <span class=\"upvote-count\">763</span>\n                </div>\n            </div>\n        </div>\n    </div> \n    <br>\n    <p>Which one do you want to reveal?</p>","response":"arrowright","phase":"test","task":"choose","left_img":27,"left_upvote":280,"left_blur":26,"right_img":42,"right_upvote":763,"right_blur":13,"check":true,"trial_type":"html-keyboard-response","trial_index":45,"time_elapsed":105035,"internal_node_id":"0.0-7.0-1.10","subject_id":"63d79fd67215cf20b76164b5","study_id":"6437092920136b88d7967a4f","session_id":"64388a4260ea3af4346d5536"},{"rt":3033,"stimulus":"<div class=\"container\">\n        <div class=\"img-container\">\n            <div class=\"column\">\n                <img src=imgs/img-27.png class=\"img\" style=\"filter: blur(26px)\">\n                <div class=\"upvote\">\n                    <span class=\"upvote-count\">280</span>\n                </div>\n            </div>\n            <div class=\"column\">\n                <img src=imgs/img-42.png class=\"img\">\n                <div class=\"upvote\">\n                    <span class=\"upvote-count\">763</span>\n                </div>\n            </div>\n        </div>\n    </div>   \n    <br>\n    <p>Press any key to continue.</p>","response":"arrowup","phase":"test","task":"reveal","trial_type":"html-keyboard-response","trial_index":46,"time_elapsed":108052,"internal_node_id":"0.0-7.0-2.10","subject_id":"63d79fd67215cf20b76164b5","study_id":"6437092920136b88d7967a4f","session_id":"64388a4260ea3af4346d5536"},{"rt":null,"stimulus":"\n          <p>Trial 12 of 21</p>\n        ","response":null,"phase":"test","trial_type":"html-keyboard-response","trial_index":47,"time_elapsed":109069,"internal_node_id":"0.0-7.0-0.11","subject_id":"63d79fd67215cf20b76164b5","study_id":"6437092920136b88d7967a4f","session_id":"64388a4260ea3af4346d5536"},{"rt":1517,"stimulus":"<div class=\"container\">\n        <div class=\"img-container\">\n            <div class=\"column\">\n                <img src=imgs/img-15.png class=\"img\" style=\"filter: blur(24px)\">\n                <div class=\"upvote\">\n                    <span class=\"upvote-count\">875</span>\n                </div>\n            </div>\n            <div class=\"column\">\n                <img src=imgs/img-35.png class=\"img\" style=\"filter: blur(9px)\">\n                <div class=\"upvote\">\n                    <span class=\"upvote-count\">114</span>\n                </div>\n            </div>\n        </div>\n    </div> \n    <br>\n    <p>Which one do you want to reveal?</p>","response":"arrowright","phase":"test","task":"choose","left_img":15,"left_upvote":875,"left_blur":24,"right_img":35,"right_upvote":114,"right_blur":9,"check":true,"trial_type":"html-keyboard-response","trial_index":48,"time_elapsed":110569,"internal_node_id":"0.0-7.0-1.11","subject_id":"63d79fd67215cf20b76164b5","study_id":"6437092920136b88d7967a4f","session_id":"64388a4260ea3af4346d5536"},{"rt":4150,"stimulus":"<div class=\"container\">\n        <div class=\"img-container\">\n            <div class=\"column\">\n                <img src=imgs/img-15.png class=\"img\" style=\"filter: blur(24px)\">\n                <div class=\"upvote\">\n                    <span class=\"upvote-count\">875</span>\n                </div>\n            </div>\n            <div class=\"column\">\n                <img src=imgs/img-35.png class=\"img\">\n                <div class=\"upvote\">\n                    <span class=\"upvote-count\">114</span>\n                </div>\n            </div>\n        </div>\n    </div>   \n    <br>\n    <p>Press any key to continue.</p>","response":"arrowup","phase":"test","task":"reveal","trial_type":"html-keyboard-response","trial_index":49,"time_elapsed":114736,"internal_node_id":"0.0-7.0-2.11","subject_id":"63d79fd67215cf20b76164b5","study_id":"6437092920136b88d7967a4f","session_id":"64388a4260ea3af4346d5536"},{"rt":null,"stimulus":"\n          <p>Trial 13 of 21</p>\n        ","response":null,"phase":"test","trial_type":"html-keyboard-response","trial_index":50,"time_elapsed":115736,"internal_node_id":"0.0-7.0-0.12","subject_id":"63d79fd67215cf20b76164b5","study_id":"6437092920136b88d7967a4f","session_id":"64388a4260ea3af4346d5536"},{"rt":1817,"stimulus":"<div class=\"container\">\n        <div class=\"img-container\">\n            <div class=\"column\">\n                <img src=imgs/img-6.png class=\"img\" style=\"filter: blur(9px)\">\n                <div class=\"upvote\">\n                    <span class=\"upvote-count\">1072</span>\n                </div>\n            </div>\n            <div class=\"column\">\n                <img src=imgs/img-9.png class=\"img\" style=\"filter: blur(30px)\">\n                <div class=\"upvote\">\n                    <span class=\"upvote-count\">686</span>\n                </div>\n            </div>\n        </div>\n    </div> \n    <br>\n    <p>Which one do you want to reveal?</p>","response":"arrowright","phase":"test","task":"choose","left_img":6,"left_upvote":1072,"left_blur":9,"right_img":9,"right_upvote":686,"right_blur":30,"check":true,"trial_type":"html-keyboard-response","trial_index":51,"time_elapsed":117569,"internal_node_id":"0.0-7.0-1.12","subject_id":"63d79fd67215cf20b76164b5","study_id":"6437092920136b88d7967a4f","session_id":"64388a4260ea3af4346d5536"},{"rt":3517,"stimulus":"<div class=\"container\">\n        <div class=\"img-container\">\n            <div class=\"column\">\n                <img src=imgs/img-6.png class=\"img\" style=\"filter: blur(9px)\">\n                <div class=\"upvote\">\n                    <span class=\"upvote-count\">1072</span>\n                </div>\n            </div>\n            <div class=\"column\">\n                <img src=imgs/img-9.png class=\"img\">\n                <div class=\"upvote\">\n                    <span class=\"upvote-count\">686</span>\n                </div>\n            </div>\n        </div>\n    </div>   \n    <br>\n    <p>Press any key to continue.</p>","response":"arrowup","phase":"test","task":"reveal","trial_type":"html-keyboard-response","trial_index":52,"time_elapsed":121069,"internal_node_id":"0.0-7.0-2.12","subject_id":"63d79fd67215cf20b76164b5","study_id":"6437092920136b88d7967a4f","session_id":"64388a4260ea3af4346d5536"},{"rt":null,"stimulus":"\n          <p>Trial 14 of 21</p>\n        ","response":null,"phase":"test","trial_type":"html-keyboard-response","trial_index":53,"time_elapsed":122069,"internal_node_id":"0.0-7.0-0.13","subject_id":"63d79fd67215cf20b76164b5","study_id":"6437092920136b88d7967a4f","session_id":"64388a4260ea3af4346d5536"},{"rt":983,"stimulus":"<div class=\"container\">\n        <div class=\"img-container\">\n            <div class=\"column\">\n                <img src=imgs/img-32.png class=\"img\" style=\"filter: blur(18px)\">\n                <div class=\"upvote\">\n                    <span class=\"upvote-count\">171</span>\n                </div>\n            </div>\n            <div class=\"column\">\n                <img src=imgs/img-18.png class=\"img\" style=\"filter: blur(15px)\">\n                <div class=\"upvote\">\n                    <span class=\"upvote-count\">743</span>\n                </div>\n            </div>\n        </div>\n    </div> \n    <br>\n    <p>Which one do you want to reveal?</p>","response":"arrowleft","phase":"test","task":"choose","left_img":32,"left_upvote":171,"left_blur":18,"right_img":18,"right_upvote":743,"right_blur":15,"check":true,"trial_type":"html-keyboard-response","trial_index":54,"time_elapsed":123052,"internal_node_id":"0.0-7.0-1.13","subject_id":"63d79fd67215cf20b76164b5","study_id":"6437092920136b88d7967a4f","session_id":"64388a4260ea3af4346d5536"},{"rt":1833,"stimulus":"<div class=\"container\">\n        <div class=\"img-container\">\n            <div class=\"column\">\n                <img src=imgs/img-32.png class=\"img\">\n                <div class=\"upvote\">\n                    <span class=\"upvote-count\">171</span>\n                </div>\n            </div>\n            <div class=\"column\">\n                <img src=imgs/img-18.png class=\"img\" style=\"filter: blur(15px)\">\n                <div class=\"upvote\">\n                    <span class=\"upvote-count\">743</span>\n                </div>\n            </div>\n        </div>\n    </div> \n    <br>\n    <p>Press any key to continue.</p>","response":"arrowup","phase":"test","task":"reveal","trial_type":"html-keyboard-response","trial_index":55,"time_elapsed":124886,"internal_node_id":"0.0-7.0-2.13","subject_id":"63d79fd67215cf20b76164b5","study_id":"6437092920136b88d7967a4f","session_id":"64388a4260ea3af4346d5536"},{"rt":null,"stimulus":"\n          <p>Trial 15 of 21</p>\n        ","response":null,"phase":"test","trial_type":"html-keyboard-response","trial_index":56,"time_elapsed":125886,"internal_node_id":"0.0-7.0-0.14","subject_id":"63d79fd67215cf20b76164b5","study_id":"6437092920136b88d7967a4f","session_id":"64388a4260ea3af4346d5536"},{"rt":1333,"stimulus":"<div class=\"container\">\n        <div class=\"img-container\">\n            <div class=\"column\">\n                <img src=imgs/img-25.png class=\"img\" style=\"filter: blur(41px)\">\n                <div class=\"upvote\">\n                    <span class=\"upvote-count\">384</span>\n                </div>\n            </div>\n            <div class=\"column\">\n                <img src=imgs/img-5.png class=\"img\" style=\"filter: blur(25px)\">\n                <div class=\"upvote\">\n                    <span class=\"upvote-count\">1302</span>\n                </div>\n            </div>\n        </div>\n    </div> \n    <br>\n    <p>Which one do you want to reveal?</p>","response":"arrowright","phase":"test","task":"choose","left_img":25,"left_upvote":384,"left_blur":41,"right_img":5,"right_upvote":1302,"right_blur":25,"check":true,"trial_type":"html-keyboard-response","trial_index":57,"time_elapsed":127219,"internal_node_id":"0.0-7.0-1.14","subject_id":"63d79fd67215cf20b76164b5","study_id":"6437092920136b88d7967a4f","session_id":"64388a4260ea3af4346d5536"},{"rt":2167,"stimulus":"<div class=\"container\">\n        <div class=\"img-container\">\n            <div class=\"column\">\n                <img src=imgs/img-25.png class=\"img\" style=\"filter: blur(41px)\">\n                <div class=\"upvote\">\n                    <span class=\"upvote-count\">384</span>\n                </div>\n            </div>\n            <div class=\"column\">\n                <img src=imgs/img-5.png class=\"img\">\n                <div class=\"upvote\">\n                    <span class=\"upvote-count\">1302</span>\n                </div>\n            </div>\n        </div>\n    </div>   \n    <br>\n    <p>Press any key to continue.</p>","response":"arrowup","phase":"test","task":"reveal","trial_type":"html-keyboard-response","trial_index":58,"time_elapsed":129403,"internal_node_id":"0.0-7.0-2.14","subject_id":"63d79fd67215cf20b76164b5","study_id":"6437092920136b88d7967a4f","session_id":"64388a4260ea3af4346d5536"},{"rt":null,"stimulus":"\n          <p>Trial 16 of 21</p>\n        ","response":null,"phase":"test","trial_type":"html-keyboard-response","trial_index":59,"time_elapsed":130403,"internal_node_id":"0.0-7.0-0.15","subject_id":"63d79fd67215cf20b76164b5","study_id":"6437092920136b88d7967a4f","session_id":"64388a4260ea3af4346d5536"},{"rt":1517,"stimulus":"<div class=\"container\">\n        <div class=\"img-container\">\n            <div class=\"column\">\n                <img src=imgs/img-17.png class=\"img\" style=\"filter: blur(10px)\">\n                <div class=\"upvote\">\n                    <span class=\"upvote-count\">836</span>\n                </div>\n            </div>\n            <div class=\"column\">\n                <img src=imgs/img-31.png class=\"img\" style=\"filter: blur(32px)\">\n                <div class=\"upvote\">\n                    <span class=\"upvote-count\">241</span>\n                </div>\n            </div>\n        </div>\n    </div> \n    <br>\n    <p>Which one do you want to reveal?</p>","response":"arrowleft","phase":"test","task":"choose","left_img":17,"left_upvote":836,"left_blur":10,"right_img":31,"right_upvote":241,"right_blur":32,"check":true,"trial_type":"html-keyboard-response","trial_index":60,"time_elapsed":131919,"internal_node_id":"0.0-7.0-1.15","subject_id":"63d79fd67215cf20b76164b5","study_id":"6437092920136b88d7967a4f","session_id":"64388a4260ea3af4346d5536"},{"rt":1250,"stimulus":"<div class=\"container\">\n        <div class=\"img-container\">\n            <div class=\"column\">\n                <img src=imgs/img-17.png class=\"img\">\n                <div class=\"upvote\">\n                    <span class=\"upvote-count\">836</span>\n                </div>\n            </div>\n            <div class=\"column\">\n                <img src=imgs/img-31.png class=\"img\" style=\"filter: blur(32px)\">\n                <div class=\"upvote\">\n                    <span class=\"upvote-count\">241</span>\n                </div>\n            </div>\n        </div>\n    </div> \n    <br>\n    <p>Press any key to continue.</p>","response":"arrowup","phase":"test","task":"reveal","trial_type":"html-keyboard-response","trial_index":61,"time_elapsed":133169,"internal_node_id":"0.0-7.0-2.15","subject_id":"63d79fd67215cf20b76164b5","study_id":"6437092920136b88d7967a4f","session_id":"64388a4260ea3af4346d5536"},{"rt":null,"stimulus":"\n          <p>Trial 17 of 21</p>\n        ","response":null,"phase":"test","trial_type":"html-keyboard-response","trial_index":62,"time_elapsed":134169,"internal_node_id":"0.0-7.0-0.16","subject_id":"63d79fd67215cf20b76164b5","study_id":"6437092920136b88d7967a4f","session_id":"64388a4260ea3af4346d5536"},{"rt":833,"stimulus":"<div class=\"container\">\n        <div class=\"img-container\">\n            <div class=\"column\">\n                <img src=imgs/img-38.png class=\"img\" style=\"filter: blur(18px)\">\n                <div class=\"upvote\">\n                    <span class=\"upvote-count\">24</span>\n                </div>\n            </div>\n            <div class=\"column\">\n                <img src=imgs/img-29.png class=\"img\" style=\"filter: blur(22px)\">\n                <div class=\"upvote\">\n                    <span class=\"upvote-count\">265</span>\n                </div>\n            </div>\n        </div>\n    </div> \n    <br>\n    <p>Which one do you want to reveal?</p>","response":"arrowright","phase":"test","task":"choose","left_img":38,"left_upvote":24,"left_blur":18,"right_img":29,"right_upvote":265,"right_blur":22,"check":true,"trial_type":"html-keyboard-response","trial_index":63,"time_elapsed":134986,"internal_node_id":"0.0-7.0-1.16","subject_id":"63d79fd67215cf20b76164b5","study_id":"6437092920136b88d7967a4f","session_id":"64388a4260ea3af4346d5536"},{"rt":1533,"stimulus":"<div class=\"container\">\n        <div class=\"img-container\">\n            <div class=\"column\">\n                <img src=imgs/img-38.png class=\"img\" style=\"filter: blur(18px)\">\n                <div class=\"upvote\">\n                    <span class=\"upvote-count\">24</span>\n                </div>\n            </div>\n            <div class=\"column\">\n                <img src=imgs/img-29.png class=\"img\">\n                <div class=\"upvote\">\n                    <span class=\"upvote-count\">265</span>\n                </div>\n            </div>\n        </div>\n    </div>   \n    <br>\n    <p>Press any key to continue.</p>","response":"arrowup","phase":"test","task":"reveal","trial_type":"html-keyboard-response","trial_index":64,"time_elapsed":136519,"internal_node_id":"0.0-7.0-2.16","subject_id":"63d79fd67215cf20b76164b5","study_id":"6437092920136b88d7967a4f","session_id":"64388a4260ea3af4346d5536"},{"rt":null,"stimulus":"\n          <p>Trial 18 of 21</p>\n        ","response":null,"phase":"test","trial_type":"html-keyboard-response","trial_index":65,"time_elapsed":137536,"internal_node_id":"0.0-7.0-0.17","subject_id":"63d79fd67215cf20b76164b5","study_id":"6437092920136b88d7967a4f","session_id":"64388a4260ea3af4346d5536"},{"rt":1817,"stimulus":"<div class=\"container\">\n        <div class=\"img-container\">\n            <div class=\"column\">\n                <img src=imgs/img-33.png class=\"img\" style=\"filter: blur(35px)\">\n                <div class=\"upvote\">\n                    <span class=\"upvote-count\">134</span>\n                </div>\n            </div>\n            <div class=\"column\">\n                <img src=imgs/img-8.png class=\"img\" style=\"filter: blur(15px)\">\n                <div class=\"upvote\">\n                    <span class=\"upvote-count\">976</span>\n                </div>\n            </div>\n        </div>\n    </div> \n    <br>\n    <p>Which one do you want to reveal?</p>","response":"arrowright","phase":"test","task":"choose","left_img":33,"left_upvote":134,"left_blur":35,"right_img":8,"right_upvote":976,"right_blur":15,"check":true,"trial_type":"html-keyboard-response","trial_index":66,"time_elapsed":139353,"internal_node_id":"0.0-7.0-1.17","subject_id":"63d79fd67215cf20b76164b5","study_id":"6437092920136b88d7967a4f","session_id":"64388a4260ea3af4346d5536"},{"rt":1233,"stimulus":"<div class=\"container\">\n        <div class=\"img-container\">\n            <div class=\"column\">\n                <img src=imgs/img-33.png class=\"img\" style=\"filter: blur(35px)\">\n                <div class=\"upvote\">\n                    <span class=\"upvote-count\">134</span>\n                </div>\n            </div>\n            <div class=\"column\">\n                <img src=imgs/img-8.png class=\"img\">\n                <div class=\"upvote\">\n                    <span class=\"upvote-count\">976</span>\n                </div>\n            </div>\n        </div>\n    </div>   \n    <br>\n    <p>Press any key to continue.</p>","response":"arrowup","phase":"test","task":"reveal","trial_type":"html-keyboard-response","trial_index":67,"time_elapsed":140586,"internal_node_id":"0.0-7.0-2.17","subject_id":"63d79fd67215cf20b76164b5","study_id":"6437092920136b88d7967a4f","session_id":"64388a4260ea3af4346d5536"},{"rt":null,"stimulus":"\n          <p>Trial 19 of 21</p>\n        ","response":null,"phase":"test","trial_type":"html-keyboard-response","trial_index":68,"time_elapsed":141586,"internal_node_id":"0.0-7.0-0.18","subject_id":"63d79fd67215cf20b76164b5","study_id":"6437092920136b88d7967a4f","session_id":"64388a4260ea3af4346d5536"},{"rt":1233,"stimulus":"<div class=\"container\">\n        <div class=\"img-container\">\n            <div class=\"column\">\n                <img src=imgs/img-13.png class=\"img\" style=\"filter: blur(35px)\">\n                <div class=\"upvote\">\n                    <span class=\"upvote-count\">1416</span>\n                </div>\n            </div>\n            <div class=\"column\">\n                <img src=imgs/img-39.png class=\"img\" style=\"filter: blur(24px)\">\n                <div class=\"upvote\">\n                    <span class=\"upvote-count\">70</span>\n                </div>\n            </div>\n        </div>\n    </div> \n    <br>\n    <p>Which one do you want to reveal?</p>","response":"arrowleft","phase":"test","task":"choose","left_img":13,"left_upvote":1416,"left_blur":35,"right_img":39,"right_upvote":70,"right_blur":24,"check":true,"trial_type":"html-keyboard-response","trial_index":69,"time_elapsed":142820,"internal_node_id":"0.0-7.0-1.18","subject_id":"63d79fd67215cf20b76164b5","study_id":"6437092920136b88d7967a4f","session_id":"64388a4260ea3af4346d5536"},{"rt":1600,"stimulus":"<div class=\"container\">\n        <div class=\"img-container\">\n            <div class=\"column\">\n                <img src=imgs/img-13.png class=\"img\">\n                <div class=\"upvote\">\n                    <span class=\"upvote-count\">1416</span>\n                </div>\n            </div>\n            <div class=\"column\">\n                <img src=imgs/img-39.png class=\"img\" style=\"filter: blur(24px)\">\n                <div class=\"upvote\">\n                    <span class=\"upvote-count\">70</span>\n                </div>\n            </div>\n        </div>\n    </div> \n    <br>\n    <p>Press any key to continue.</p>","response":"arrowup","phase":"test","task":"reveal","trial_type":"html-keyboard-response","trial_index":70,"time_elapsed":144436,"internal_node_id":"0.0-7.0-2.18","subject_id":"63d79fd67215cf20b76164b5","study_id":"6437092920136b88d7967a4f","session_id":"64388a4260ea3af4346d5536"},{"rt":null,"stimulus":"\n          <p>Trial 20 of 21</p>\n        ","response":null,"phase":"test","trial_type":"html-keyboard-response","trial_index":71,"time_elapsed":145436,"internal_node_id":"0.0-7.0-0.19","subject_id":"63d79fd67215cf20b76164b5","study_id":"6437092920136b88d7967a4f","session_id":"64388a4260ea3af4346d5536"},{"rt":1333,"stimulus":"<div class=\"container\">\n        <div class=\"img-container\">\n            <div class=\"column\">\n                <img src=imgs/img-21.png class=\"img\" style=\"filter: blur(41px)\">\n                <div class=\"upvote\">\n                    <span class=\"upvote-count\">510</span>\n                </div>\n            </div>\n            <div class=\"column\">\n                <img src=imgs/img-30.png class=\"img\" style=\"filter: blur(21px)\">\n                <div class=\"upvote\">\n                    <span class=\"upvote-count\">206</span>\n                </div>\n            </div>\n        </div>\n    </div> \n    <br>\n    <p>Which one do you want to reveal?</p>","response":"arrowright","phase":"test","task":"choose","left_img":21,"left_upvote":510,"left_blur":41,"right_img":30,"right_upvote":206,"right_blur":21,"check":true,"trial_type":"html-keyboard-response","trial_index":72,"time_elapsed":146770,"internal_node_id":"0.0-7.0-1.19","subject_id":"63d79fd67215cf20b76164b5","study_id":"6437092920136b88d7967a4f","session_id":"64388a4260ea3af4346d5536"},{"rt":1333,"stimulus":"<div class=\"container\">\n        <div class=\"img-container\">\n            <div class=\"column\">\n                <img src=imgs/img-21.png class=\"img\" style=\"filter: blur(41px)\">\n                <div class=\"upvote\">\n                    <span class=\"upvote-count\">510</span>\n                </div>\n            </div>\n            <div class=\"column\">\n                <img src=imgs/img-30.png class=\"img\">\n                <div class=\"upvote\">\n                    <span class=\"upvote-count\">206</span>\n                </div>\n            </div>\n        </div>\n    </div>   \n    <br>\n    <p>Press any key to continue.</p>","response":"arrowup","phase":"test","task":"reveal","trial_type":"html-keyboard-response","trial_index":73,"time_elapsed":148103,"internal_node_id":"0.0-7.0-2.19","subject_id":"63d79fd67215cf20b76164b5","study_id":"6437092920136b88d7967a4f","session_id":"64388a4260ea3af4346d5536"},{"rt":null,"stimulus":"\n          <p>Trial 21 of 21</p>\n        ","response":null,"phase":"test","trial_type":"html-keyboard-response","trial_index":74,"time_elapsed":149120,"internal_node_id":"0.0-7.0-0.20","subject_id":"63d79fd67215cf20b76164b5","study_id":"6437092920136b88d7967a4f","session_id":"64388a4260ea3af4346d5536"},{"rt":1400,"stimulus":"<div class=\"container\">\n        <div class=\"img-container\">\n            <div class=\"column\">\n                <img src=imgs/img-11.png class=\"img\" style=\"filter: blur(25px)\">\n                <div class=\"upvote\">\n                    <span class=\"upvote-count\">3043</span>\n                </div>\n            </div>\n            <div class=\"column\">\n                <img src=imgs/img-2.png class=\"img\" style=\"filter: blur(7px)\">\n                <div class=\"upvote\">\n                    <span class=\"upvote-count\">1809</span>\n                </div>\n            </div>\n        </div>\n    </div> \n    <br>\n    <p>Which one do you want to reveal?</p>","response":"arrowleft","phase":"test","task":"choose","left_img":11,"left_upvote":3043,"left_blur":25,"right_img":1,"right_upvote":1809,"right_blur":7,"check":true,"trial_type":"html-keyboard-response","trial_index":75,"time_elapsed":150503,"internal_node_id":"0.0-7.0-1.20","subject_id":"63d79fd67215cf20b76164b5","study_id":"6437092920136b88d7967a4f","session_id":"64388a4260ea3af4346d5536"},{"rt":1750,"stimulus":"<div class=\"container\">\n        <div class=\"img-container\">\n            <div class=\"column\">\n                <img src=imgs/img-11.png class=\"img\">\n                <div class=\"upvote\">\n                    <span class=\"upvote-count\">3043</span>\n                </div>\n            </div>\n            <div class=\"column\">\n                <img src=imgs/img-2.png class=\"img\" style=\"filter: blur(7px)\">\n                <div class=\"upvote\">\n                    <span class=\"upvote-count\">1809</span>\n                </div>\n            </div>\n        </div>\n    </div> \n    <br>\n    <p>Press any key to continue.</p>","response":"arrowup","phase":"test","task":"reveal","trial_type":"html-keyboard-response","trial_index":76,"time_elapsed":152253,"internal_node_id":"0.0-7.0-2.20","subject_id":"63d79fd67215cf20b76164b5","study_id":"6437092920136b88d7967a4f","session_id":"64388a4260ea3af4346d5536"}]